STUDYID,DOMAIN,USUBJID,VISITNUM,VISIT,VISITDY,SVSTDTC,SVENDTC
CDISCPILOT01,SV,01-701-1015,1.0,SCREENING 1,-7.0,2013-12-26,2013-12-26
CDISCPILOT01,SV,01-701-1015,2.0,SCREENING 2,-1.0,2013-12-31,2013-12-31
CDISCPILOT01,SV,01-701-1015,3.0,BASELINE,1.0,2014-01-02,2014-01-02
CDISCPILOT01,SV,01-701-1015,3.5,AMBUL ECG PLACEMENT,13.0,2014-01-14,2014-01-14
CDISCPILOT01,SV,01-701-1015,4.0,WEEK 2,14.0,2014-01-16,2014-01-16
CDISCPILOT01,SV,01-701-1015,5.0,WEEK 4,28.0,2014-01-30,2014-01-30
CDISCPILOT01,SV,01-701-1015,6.0,AMBUL ECG REMOVAL,30.0,2014-02-01,2014-02-01
CDISCPILOT01,SV,01-701-1015,7.0,WEEK 6,42.0,2014-02-12,2014-02-12
CDISCPILOT01,SV,01-701-1015,8.0,WEEK 8,56.0,2014-03-05,2014-03-05
CDISCPILOT01,SV,01-701-1015,9.0,WEEK 12,84.0,2014-03-26,2014-03-26
CDISCPILOT01,SV,01-701-1015,9.1,WEEK 14 (T),98.0,2014-04-09,2014-04-09
CDISCPILOT01,SV,01-701-1015,10.0,WEEK 16,112.0,2014-05-07,2014-05-07
CDISCPILOT01,SV,01-701-1015,11.0,WEEK 20,140.0,2014-05-21,2014-05-21
CDISCPILOT01,SV,01-701-1015,11.1,WEEK 22 (T),154.0,2014-06-04,2014-06-04
CDISCPILOT01,SV,01-701-1015,12.0,WEEK 24,168.0,2014-06-18,2014-06-18
CDISCPILOT01,SV,01-701-1015,13.0,WEEK 26,182.0,2014-07-02,2014-07-02
CDISCPILOT01,SV,01-701-1023,1.0,SCREENING 1,-7.0,2012-07-22,2012-07-22
CDISCPILOT01,SV,01-701-1023,2.0,SCREENING 2,-1.0,2012-08-03,2012-08-03
CDISCPILOT01,SV,01-701-1023,3.0,BASELINE,1.0,2012-08-05,2012-08-05
CDISCPILOT01,SV,01-701-1023,3.5,AMBUL ECG PLACEMENT,13.0,2012-08-26,2012-08-26
CDISCPILOT01,SV,01-701-1023,4.0,WEEK 2,14.0,2012-08-27,2012-08-27
CDISCPILOT01,SV,01-701-1023,5.0,WEEK 4,28.0,2012-09-02,2012-09-02
CDISCPILOT01,SV,01-701-1023,5.1,UNSCHEDULED 5.1,,2013-02-18,2013-02-18
CDISCPILOT01,SV,01-701-1023,101.0,AE FOLLOW-UP,,2013-02-18,2013-02-18
CDISCPILOT01,SV,01-701-1023,201.0,RETRIEVAL,168.0,2013-02-18,2013-02-18
CDISCPILOT01,SV,01-701-1028,1.0,SCREENING 1,-7.0,2013-07-11,2013-07-11
CDISCPILOT01,SV,01-701-1028,2.0,SCREENING 2,-1.0,2013-07-17,2013-07-17
CDISCPILOT01,SV,01-701-1028,3.0,BASELINE,1.0,2013-07-19,2013-07-19
CDISCPILOT01,SV,01-701-1028,3.5,AMBUL ECG PLACEMENT,13.0,2013-07-31,2013-07-31
CDISCPILOT01,SV,01-701-1028,4.0,WEEK 2,14.0,2013-08-01,2013-08-01
CDISCPILOT01,SV,01-701-1028,5.0,WEEK 4,28.0,2013-08-14,2013-08-14
CDISCPILOT01,SV,01-701-1028,6.0,AMBUL ECG REMOVAL,30.0,2013-08-16,2013-08-16
CDISCPILOT01,SV,01-701-1028,7.0,WEEK 6,42.0,2013-08-29,2013-08-29
CDISCPILOT01,SV,01-701-1028,8.0,WEEK 8,56.0,2013-09-10,2013-09-10
CDISCPILOT01,SV,01-701-1028,8.1,WEEK 10 (T),70.0,2013-09-24,2013-09-24
CDISCPILOT01,SV,01-701-1028,9.0,WEEK 12,84.0,2013-10-09,2013-10-09
CDISCPILOT01,SV,01-701-1028,9.1,WEEK 14 (T),98.0,2013-10-23,2013-10-23
CDISCPILOT01,SV,01-701-1028,10.0,WEEK 16,112.0,2013-11-06,2013-11-06
CDISCPILOT01,SV,01-701-1028,10.1,WEEK 18 (T),126.0,2013-11-20,2013-11-20
CDISCPILOT01,SV,01-701-1028,11.0,WEEK 20,140.0,2013-12-04,2013-12-04
CDISCPILOT01,SV,01-701-1028,11.1,WEEK 22 (T),154.0,2013-12-18,2013-12-18
CDISCPILOT01,SV,01-701-1028,12.0,WEEK 24,168.0,2014-01-06,2014-01-06
CDISCPILOT01,SV,01-701-1028,13.0,WEEK 26,182.0,2014-01-14,2014-01-14
CDISCPILOT01,SV,01-701-1033,1.0,SCREENING 1,-7.0,2014-03-10,2014-03-10
CDISCPILOT01,SV,01-701-1033,2.0,SCREENING 2,-1.0,2014-03-16,2014-03-16
CDISCPILOT01,SV,01-701-1033,3.0,BASELINE,1.0,2014-03-18,2014-03-18
CDISCPILOT01,SV,01-701-1033,3.5,AMBUL ECG PLACEMENT,13.0,2014-03-31,2014-03-31
CDISCPILOT01,SV,01-701-1033,4.0,WEEK 2,14.0,2014-04-01,2014-04-01
CDISCPILOT01,SV,01-701-1033,5.0,WEEK 4,28.0,2014-04-14,2014-04-14
CDISCPILOT01,SV,01-701-1033,201.0,RETRIEVAL,168.0,2014-09-15,2014-09-15
CDISCPILOT01,SV,01-701-1034,1.0,SCREENING 1,-7.0,2014-06-24,2014-06-24
CDISCPILOT01,SV,01-701-1034,2.0,SCREENING 2,-1.0,2014-06-29,2014-06-29
CDISCPILOT01,SV,01-701-1034,3.0,BASELINE,1.0,2014-07-01,2014-07-01
CDISCPILOT01,SV,01-701-1034,4.0,WEEK 2,14.0,2014-07-15,2014-07-15
CDISCPILOT01,SV,01-701-1034,5.0,WEEK 4,28.0,2014-07-29,2014-07-29
CDISCPILOT01,SV,01-701-1034,6.0,AMBUL ECG REMOVAL,30.0,2014-07-31,2014-07-31
CDISCPILOT01,SV,01-701-1034,7.0,WEEK 6,42.0,2014-08-11,2014-08-11
CDISCPILOT01,SV,01-701-1034,8.0,WEEK 8,56.0,2014-08-26,2014-08-26
CDISCPILOT01,SV,01-701-1034,8.1,WEEK 10 (T),70.0,2014-09-09,2014-09-09
CDISCPILOT01,SV,01-701-1034,9.0,WEEK 12,84.0,2014-09-25,2014-09-25
CDISCPILOT01,SV,01-701-1034,9.1,WEEK 14 (T),98.0,2014-10-07,2014-10-07
CDISCPILOT01,SV,01-701-1034,10.0,WEEK 16,112.0,2014-10-21,2014-10-21
CDISCPILOT01,SV,01-701-1034,10.1,WEEK 18 (T),126.0,2014-11-04,2014-11-04
CDISCPILOT01,SV,01-701-1034,11.0,WEEK 20,140.0,2014-11-18,2014-11-18
CDISCPILOT01,SV,01-701-1034,11.1,WEEK 22 (T),154.0,2014-12-02,2014-12-02
CDISCPILOT01,SV,01-701-1034,12.0,WEEK 24,168.0,2014-12-17,2014-12-17
CDISCPILOT01,SV,01-701-1034,13.0,WEEK 26,182.0,2014-12-30,2014-12-30
CDISCPILOT01,SV,01-701-1047,1.0,SCREENING 1,-7.0,2013-01-22,2013-01-22
CDISCPILOT01,SV,01-701-1047,2.0,SCREENING 2,-1.0,2013-02-10,2013-02-10
CDISCPILOT01,SV,01-701-1047,3.0,BASELINE,1.0,2013-02-12,2013-02-12
CDISCPILOT01,SV,01-701-1047,3.5,AMBUL ECG PLACEMENT,13.0,2013-02-24,2013-02-24
CDISCPILOT01,SV,01-701-1047,4.0,WEEK 2,14.0,2013-02-25,2013-02-25
CDISCPILOT01,SV,01-701-1047,5.0,WEEK 4,28.0,2013-03-10,2013-03-10
CDISCPILOT01,SV,01-701-1047,6.0,AMBUL ECG REMOVAL,30.0,2013-03-29,2013-03-29
CDISCPILOT01,SV,01-701-1047,6.1,UNSCHEDULED 6.1,,2013-04-07,2013-04-07
CDISCPILOT01,SV,01-701-1047,201.0,RETRIEVAL,168.0,2013-07-28,2013-07-28
CDISCPILOT01,SV,01-701-1057,1.0,SCREENING 1,-7.0,2013-12-20,2013-12-20
CDISCPILOT01,SV,01-701-1097,1.0,SCREENING 1,-7.0,2013-12-23,2013-12-23
CDISCPILOT01,SV,01-701-1097,2.0,SCREENING 2,-1.0,2013-12-30,2013-12-30
CDISCPILOT01,SV,01-701-1097,3.0,BASELINE,1.0,2014-01-01,2014-01-01
CDISCPILOT01,SV,01-701-1097,3.5,AMBUL ECG PLACEMENT,13.0,2014-01-14,2014-01-14
CDISCPILOT01,SV,01-701-1097,4.0,WEEK 2,14.0,2014-01-15,2014-01-15
CDISCPILOT01,SV,01-701-1097,5.0,WEEK 4,28.0,2014-01-29,2014-01-29
CDISCPILOT01,SV,01-701-1097,6.0,AMBUL ECG REMOVAL,30.0,2014-02-04,2014-02-04
CDISCPILOT01,SV,01-701-1097,7.0,WEEK 6,42.0,2014-02-11,2014-02-11
CDISCPILOT01,SV,01-701-1097,8.0,WEEK 8,56.0,2014-02-26,2014-02-26
CDISCPILOT01,SV,01-701-1097,9.0,WEEK 12,84.0,2014-03-26,2014-03-26
CDISCPILOT01,SV,01-701-1097,9.1,WEEK 14 (T),98.0,2014-04-09,2014-04-09
CDISCPILOT01,SV,01-701-1097,10.0,WEEK 16,112.0,2014-04-23,2014-04-23
CDISCPILOT01,SV,01-701-1097,10.1,WEEK 18 (T),126.0,2014-05-07,2014-05-07
CDISCPILOT01,SV,01-701-1097,11.0,WEEK 20,140.0,2014-05-21,2014-05-21
CDISCPILOT01,SV,01-701-1097,11.1,WEEK 22 (T),154.0,2014-06-04,2014-06-04
CDISCPILOT01,SV,01-701-1097,12.0,WEEK 24,168.0,2014-06-18,2014-06-18
CDISCPILOT01,SV,01-701-1097,13.0,WEEK 26,182.0,2014-07-09,2014-07-09
CDISCPILOT01,SV,01-701-1111,1.0,SCREENING 1,-7.0,2012-08-25,2012-08-25
CDISCPILOT01,SV,01-701-1111,2.0,SCREENING 2,-1.0,2012-09-05,2012-09-05
CDISCPILOT01,SV,01-701-1111,3.0,BASELINE,1.0,2012-09-07,2012-09-07
CDISCPILOT01,SV,01-701-1111,4.0,WEEK 2,14.0,2012-09-17,2012-09-17
CDISCPILOT01,SV,01-701-1111,101.0,AE FOLLOW-UP,,2012-09-29,2012-09-29
CDISCPILOT01,SV,01-701-1111,201.0,RETRIEVAL,168.0,2013-02-22,2013-02-22
CDISCPILOT01,SV,01-701-1115,1.0,SCREENING 1,-7.0,2012-11-23,2012-11-23
CDISCPILOT01,SV,01-701-1115,2.0,SCREENING 2,-1.0,2012-11-28,2012-11-28
CDISCPILOT01,SV,01-701-1115,3.0,BASELINE,1.0,2012-11-30,2012-11-30
CDISCPILOT01,SV,01-701-1115,3.5,AMBUL ECG PLACEMENT,13.0,2012-12-12,2012-12-12
CDISCPILOT01,SV,01-701-1115,4.0,WEEK 2,14.0,2012-12-13,2012-12-13
CDISCPILOT01,SV,01-701-1115,5.0,WEEK 4,28.0,2012-12-26,2012-12-26
CDISCPILOT01,SV,01-701-1115,5.1,UNSCHEDULED 5.1,,2012-12-28,2012-12-28
CDISCPILOT01,SV,01-701-1115,6.0,AMBUL ECG REMOVAL,30.0,2012-12-28,2012-12-28
CDISCPILOT01,SV,01-701-1115,7.0,WEEK 6,42.0,2013-01-10,2013-01-10
CDISCPILOT01,SV,01-701-1115,8.0,WEEK 8,56.0,2013-01-23,2013-01-23
CDISCPILOT01,SV,01-701-1115,101.0,AE FOLLOW-UP,,2013-02-14,2013-02-14
CDISCPILOT01,SV,01-701-1115,201.0,RETRIEVAL,168.0,2013-05-20,2013-05-20
CDISCPILOT01,SV,01-701-1118,1.0,SCREENING 1,-7.0,2014-02-27,2014-02-27
CDISCPILOT01,SV,01-701-1118,2.0,SCREENING 2,-1.0,2014-03-10,2014-03-10
CDISCPILOT01,SV,01-701-1118,3.0,BASELINE,1.0,2014-03-12,2014-03-12
CDISCPILOT01,SV,01-701-1118,3.5,AMBUL ECG PLACEMENT,13.0,2014-03-25,2014-03-25
CDISCPILOT01,SV,01-701-1118,4.0,WEEK 2,14.0,2014-03-26,2014-03-26
CDISCPILOT01,SV,01-701-1118,5.0,WEEK 4,28.0,2014-04-09,2014-04-09
CDISCPILOT01,SV,01-701-1118,6.0,AMBUL ECG REMOVAL,30.0,2014-04-11,2014-04-11
CDISCPILOT01,SV,01-701-1118,7.0,WEEK 6,42.0,2014-04-23,2014-04-23
CDISCPILOT01,SV,01-701-1118,8.0,WEEK 8,56.0,2014-05-08,2014-05-08
CDISCPILOT01,SV,01-701-1118,8.1,WEEK 10 (T),70.0,2014-05-21,2014-05-21
CDISCPILOT01,SV,01-701-1118,9.0,WEEK 12,84.0,2014-06-05,2014-06-05
CDISCPILOT01,SV,01-701-1118,9.1,WEEK 14 (T),98.0,2014-06-18,2014-06-18
CDISCPILOT01,SV,01-701-1118,10.0,WEEK 16,112.0,2014-07-02,2014-07-02
CDISCPILOT01,SV,01-701-1118,10.1,WEEK 18 (T),126.0,2014-07-16,2014-07-16
CDISCPILOT01,SV,01-701-1118,11.0,WEEK 20,140.0,2014-07-30,2014-07-30
CDISCPILOT01,SV,01-701-1118,11.1,WEEK 22 (T),154.0,2014-07-13,2014-07-13
CDISCPILOT01,SV,01-701-1118,12.0,WEEK 24,168.0,2014-08-27,2014-08-27
CDISCPILOT01,SV,01-701-1118,13.0,WEEK 26,182.0,2014-09-09,2014-09-09
CDISCPILOT01,SV,01-701-1130,1.0,SCREENING 1,-7.0,2014-02-09,2014-02-09
CDISCPILOT01,SV,01-701-1130,2.0,SCREENING 2,-1.0,2014-02-13,2014-02-13
CDISCPILOT01,SV,01-701-1130,3.0,BASELINE,1.0,2014-02-15,2014-02-15
CDISCPILOT01,SV,01-701-1130,3.5,AMBUL ECG PLACEMENT,13.0,2014-02-28,2014-02-28
CDISCPILOT01,SV,01-701-1130,4.0,WEEK 2,14.0,2014-03-01,2014-03-01
CDISCPILOT01,SV,01-701-1130,5.0,WEEK 4,28.0,2014-03-15,2014-03-15
CDISCPILOT01,SV,01-701-1130,6.0,AMBUL ECG REMOVAL,30.0,2014-03-17,2014-03-17
CDISCPILOT01,SV,01-701-1130,7.0,WEEK 6,42.0,2014-03-29,2014-03-29
CDISCPILOT01,SV,01-701-1130,8.0,WEEK 8,56.0,2014-04-12,2014-04-12
CDISCPILOT01,SV,01-701-1130,8.1,WEEK 10 (T),70.0,2014-04-26,2014-04-26
CDISCPILOT01,SV,01-701-1130,9.0,WEEK 12,84.0,2014-05-16,2014-05-16
CDISCPILOT01,SV,01-701-1130,9.1,WEEK 14 (T),98.0,2014-05-24,2014-05-24
CDISCPILOT01,SV,01-701-1130,10.0,WEEK 16,112.0,2014-06-07,2014-06-07
CDISCPILOT01,SV,01-701-1130,10.1,WEEK 18 (T),126.0,2014-06-21,2014-06-21
CDISCPILOT01,SV,01-701-1130,11.0,WEEK 20,140.0,2014-07-02,2014-07-02
CDISCPILOT01,SV,01-701-1130,11.1,WEEK 22 (T),154.0,2014-07-19,2014-07-19
CDISCPILOT01,SV,01-701-1130,12.0,WEEK 24,168.0,2014-08-02,2014-08-02
CDISCPILOT01,SV,01-701-1130,13.0,WEEK 26,182.0,2014-08-16,2014-08-16
CDISCPILOT01,SV,01-701-1133,1.0,SCREENING 1,-7.0,2012-10-23,2012-10-23
CDISCPILOT01,SV,01-701-1133,2.0,SCREENING 2,-1.0,2012-10-26,2012-10-26
CDISCPILOT01,SV,01-701-1133,3.0,BASELINE,1.0,2012-10-28,2012-10-28
CDISCPILOT01,SV,01-701-1133,3.5,AMBUL ECG PLACEMENT,13.0,2012-11-11,2012-11-11
CDISCPILOT01,SV,01-701-1133,4.0,WEEK 2,14.0,2012-11-12,2012-11-12
CDISCPILOT01,SV,01-701-1133,5.0,WEEK 4,28.0,2012-11-26,2012-11-26
CDISCPILOT01,SV,01-701-1133,6.0,AMBUL ECG REMOVAL,30.0,2012-11-28,2012-11-28
CDISCPILOT01,SV,01-701-1133,7.0,WEEK 6,42.0,2012-12-11,2012-12-11
CDISCPILOT01,SV,01-701-1133,8.0,WEEK 8,56.0,2012-12-24,2012-12-24
CDISCPILOT01,SV,01-701-1133,8.1,WEEK 10 (T),70.0,2013-01-07,2013-01-07
CDISCPILOT01,SV,01-701-1133,9.0,WEEK 12,84.0,2013-01-22,2013-01-22
CDISCPILOT01,SV,01-701-1133,9.1,WEEK 14 (T),98.0,2013-02-04,2013-02-04
CDISCPILOT01,SV,01-701-1133,10.0,WEEK 16,112.0,2013-02-18,2013-02-18
CDISCPILOT01,SV,01-701-1133,10.1,WEEK 18 (T),126.0,2013-03-04,2013-03-04
CDISCPILOT01,SV,01-701-1133,11.0,WEEK 20,140.0,2013-03-18,2013-03-18
CDISCPILOT01,SV,01-701-1133,11.1,WEEK 22 (T),154.0,2013-04-01,2013-04-01
CDISCPILOT01,SV,01-701-1133,12.0,WEEK 24,168.0,2013-04-18,2013-04-18
CDISCPILOT01,SV,01-701-1133,13.0,WEEK 26,182.0,2013-04-29,2013-04-29
CDISCPILOT01,SV,01-701-1145,1.0,SCREENING 1,-7.0,2013-09-05,2013-09-05
CDISCPILOT01,SV,01-701-1146,1.0,SCREENING 1,-7.0,2013-05-07,2013-05-07
CDISCPILOT01,SV,01-701-1146,2.0,SCREENING 2,-1.0,2013-05-18,2013-05-18
CDISCPILOT01,SV,01-701-1146,3.0,BASELINE,1.0,2013-05-20,2013-05-20
CDISCPILOT01,SV,01-701-1146,3.5,AMBUL ECG PLACEMENT,13.0,2013-06-02,2013-06-02
CDISCPILOT01,SV,01-701-1146,4.0,WEEK 2,14.0,2013-06-03,2013-06-03
CDISCPILOT01,SV,01-701-1146,5.0,WEEK 4,28.0,2013-06-16,2013-06-16
CDISCPILOT01,SV,01-701-1146,6.0,AMBUL ECG REMOVAL,30.0,2013-06-18,2013-06-18
CDISCPILOT01,SV,01-701-1146,7.0,WEEK 6,42.0,2013-06-30,2013-06-30
CDISCPILOT01,SV,01-701-1146,101.0,AE FOLLOW-UP,,2013-07-15,2013-07-15
CDISCPILOT01,SV,01-701-1148,1.0,SCREENING 1,-7.0,2013-08-14,2013-08-14
CDISCPILOT01,SV,01-701-1148,2.0,SCREENING 2,-1.0,2013-08-21,2013-08-21
CDISCPILOT01,SV,01-701-1148,3.0,BASELINE,1.0,2013-08-23,2013-08-23
CDISCPILOT01,SV,01-701-1148,3.5,AMBUL ECG PLACEMENT,13.0,2013-09-04,2013-09-04
CDISCPILOT01,SV,01-701-1148,4.0,WEEK 2,14.0,2013-09-05,2013-09-05
CDISCPILOT01,SV,01-701-1148,5.0,WEEK 4,28.0,2013-09-19,2013-09-19
CDISCPILOT01,SV,01-701-1148,6.0,AMBUL ECG REMOVAL,30.0,2013-09-21,2013-09-21
CDISCPILOT01,SV,01-701-1148,7.0,WEEK 6,42.0,2013-10-03,2013-10-03
CDISCPILOT01,SV,01-701-1148,8.0,WEEK 8,56.0,2013-10-18,2013-10-18
CDISCPILOT01,SV,01-701-1148,8.1,WEEK 10 (T),70.0,2013-11-01,2013-11-01
CDISCPILOT01,SV,01-701-1148,9.0,WEEK 12,84.0,2013-11-17,2013-11-17
CDISCPILOT01,SV,01-701-1148,9.1,WEEK 14 (T),98.0,2013-11-30,2013-11-30
CDISCPILOT01,SV,01-701-1148,10.0,WEEK 16,112.0,2013-12-13,2013-12-13
CDISCPILOT01,SV,01-701-1148,10.1,WEEK 18 (T),126.0,2013-12-27,2013-12-27
CDISCPILOT01,SV,01-701-1148,11.0,WEEK 20,140.0,2014-01-10,2014-01-10
CDISCPILOT01,SV,01-701-1148,11.1,WEEK 22 (T),154.0,2014-01-24,2014-01-24
CDISCPILOT01,SV,01-701-1148,12.0,WEEK 24,168.0,2014-02-08,2014-02-08
CDISCPILOT01,SV,01-701-1148,13.0,WEEK 26,182.0,2014-02-20,2014-02-20
CDISCPILOT01,SV,01-701-1153,1.0,SCREENING 1,-7.0,2013-09-06,2013-09-06
CDISCPILOT01,SV,01-701-1153,2.0,SCREENING 2,-1.0,2013-09-18,2013-09-18
CDISCPILOT01,SV,01-701-1153,3.0,BASELINE,1.0,2013-09-23,2013-09-23
CDISCPILOT01,SV,01-701-1153,3.5,AMBUL ECG PLACEMENT,13.0,2013-10-07,2013-10-07
CDISCPILOT01,SV,01-701-1153,4.0,WEEK 2,14.0,2013-10-08,2013-10-08
CDISCPILOT01,SV,01-701-1153,5.0,WEEK 4,28.0,2013-10-19,2013-10-19
CDISCPILOT01,SV,01-701-1153,5.1,UNSCHEDULED 5.1,,2013-10-19,2013-10-19
CDISCPILOT01,SV,01-701-1153,6.0,AMBUL ECG REMOVAL,30.0,2013-10-28,2013-10-28
CDISCPILOT01,SV,01-701-1153,7.0,WEEK 6,42.0,2013-11-04,2013-11-04
CDISCPILOT01,SV,01-701-1153,8.0,WEEK 8,56.0,2013-11-18,2013-11-18
CDISCPILOT01,SV,01-701-1153,8.1,WEEK 10 (T),70.0,2013-12-02,2013-12-02
CDISCPILOT01,SV,01-701-1153,9.0,WEEK 12,84.0,2013-12-16,2013-12-16
CDISCPILOT01,SV,01-701-1153,9.1,WEEK 14 (T),98.0,2013-12-30,2013-12-30
CDISCPILOT01,SV,01-701-1153,9.2,UNSCHEDULED 9.2,,2014-01-08,2014-01-08
CDISCPILOT01,SV,01-701-1153,9.3,UNSCHEDULED 9.3,,2013-12-30,2013-12-30
CDISCPILOT01,SV,01-701-1153,10.0,WEEK 16,112.0,2014-01-08,2014-01-08
CDISCPILOT01,SV,01-701-1153,11.0,WEEK 20,140.0,2014-02-11,2014-02-11
CDISCPILOT01,SV,01-701-1153,11.1,WEEK 22 (T),154.0,2014-02-25,2014-02-25
CDISCPILOT01,SV,01-701-1153,12.0,WEEK 24,168.0,2014-03-11,2014-03-11
CDISCPILOT01,SV,01-701-1153,13.0,WEEK 26,182.0,2014-04-01,2014-04-01
CDISCPILOT01,SV,01-701-1162,1.0,SCREENING 1,-7.0,2013-04-18,2013-04-18
CDISCPILOT01,SV,01-701-1176,1.0,SCREENING 1,-7.0,2012-09-30,2012-09-30
CDISCPILOT01,SV,01-701-1180,1.0,SCREENING 1,-7.0,2013-01-28,2013-01-28
CDISCPILOT01,SV,01-701-1180,2.0,SCREENING 2,-1.0,2013-02-10,2013-02-10
CDISCPILOT01,SV,01-701-1180,3.0,BASELINE,1.0,2013-02-12,2013-02-12
CDISCPILOT01,SV,01-701-1180,3.5,AMBUL ECG PLACEMENT,13.0,2013-02-24,2013-02-24
CDISCPILOT01,SV,01-701-1180,4.0,WEEK 2,14.0,2013-02-25,2013-02-25
CDISCPILOT01,SV,01-701-1180,5.0,WEEK 4,28.0,2013-03-11,2013-03-11
CDISCPILOT01,SV,01-701-1180,6.0,AMBUL ECG REMOVAL,30.0,2013-03-13,2013-03-13
CDISCPILOT01,SV,01-701-1180,7.0,WEEK 6,42.0,2013-03-23,2013-03-23
CDISCPILOT01,SV,01-701-1180,101.0,AE FOLLOW-UP,,2013-04-07,2013-04-07
CDISCPILOT01,SV,01-701-1181,1.0,SCREENING 1,-7.0,2013-11-26,2013-11-26
CDISCPILOT01,SV,01-701-1181,2.0,SCREENING 2,-1.0,2013-12-03,2013-12-03
CDISCPILOT01,SV,01-701-1181,3.0,BASELINE,1.0,2013-12-05,2013-12-05
CDISCPILOT01,SV,01-701-1181,4.0,WEEK 2,14.0,2013-12-12,2013-12-12
CDISCPILOT01,SV,01-701-1181,101.0,AE FOLLOW-UP,,2013-12-20,2013-12-20
CDISCPILOT01,SV,01-701-1181,201.0,RETRIEVAL,168.0,2014-05-23,2014-05-23
CDISCPILOT01,SV,01-701-1188,1.0,SCREENING 1,-7.0,2013-02-03,2013-02-03
CDISCPILOT01,SV,01-701-1188,2.0,SCREENING 2,-1.0,2013-02-10,2013-02-10
CDISCPILOT01,SV,01-701-1188,3.0,BASELINE,1.0,2013-02-15,2013-02-15
CDISCPILOT01,SV,01-701-1188,3.5,AMBUL ECG PLACEMENT,13.0,2013-03-01,2013-03-01
CDISCPILOT01,SV,01-701-1188,4.0,WEEK 2,14.0,2013-03-02,2013-03-02
CDISCPILOT01,SV,01-701-1188,5.0,WEEK 4,28.0,2013-03-16,2013-03-16
CDISCPILOT01,SV,01-701-1188,6.0,AMBUL ECG REMOVAL,30.0,2013-03-18,2013-03-18
CDISCPILOT01,SV,01-701-1188,7.0,WEEK 6,42.0,2013-03-25,2013-03-25
CDISCPILOT01,SV,01-701-1188,101.0,AE FOLLOW-UP,,2013-06-01,2013-06-01
CDISCPILOT01,SV,01-701-1188,201.0,RETRIEVAL,168.0,2013-08-04,2013-08-04
CDISCPILOT01,SV,01-701-1192,1.0,SCREENING 1,-7.0,2012-07-08,2012-07-08
CDISCPILOT01,SV,01-701-1192,2.0,SCREENING 2,-1.0,2012-07-20,2012-07-20
CDISCPILOT01,SV,01-701-1192,3.0,BASELINE,1.0,2012-07-22,2012-07-22
CDISCPILOT01,SV,01-701-1192,3.5,AMBUL ECG PLACEMENT,13.0,2012-08-04,2012-08-04
CDISCPILOT01,SV,01-701-1192,4.0,WEEK 2,14.0,2012-08-07,2012-08-07
CDISCPILOT01,SV,01-701-1192,5.0,WEEK 4,28.0,2012-08-21,2012-08-21
CDISCPILOT01,SV,01-701-1192,5.1,UNSCHEDULED 5.1,,2012-08-21,2012-08-21
CDISCPILOT01,SV,01-701-1192,6.0,AMBUL ECG REMOVAL,30.0,2012-08-23,2012-08-23
CDISCPILOT01,SV,01-701-1192,7.0,WEEK 6,42.0,2012-09-04,2012-09-04
CDISCPILOT01,SV,01-701-1192,8.0,WEEK 8,56.0,2012-09-23,2012-09-23
CDISCPILOT01,SV,01-701-1192,8.1,WEEK 10 (T),70.0,2012-09-30,2012-09-30
CDISCPILOT01,SV,01-701-1192,9.0,WEEK 12,84.0,2012-10-14,2012-10-14
CDISCPILOT01,SV,01-701-1192,9.1,WEEK 14 (T),98.0,2012-10-29,2012-10-29
CDISCPILOT01,SV,01-701-1192,10.0,WEEK 16,112.0,2012-11-15,2012-11-15
CDISCPILOT01,SV,01-701-1192,10.1,WEEK 18 (T),126.0,2012-11-26,2012-11-26
CDISCPILOT01,SV,01-701-1192,11.0,WEEK 20,140.0,2012-12-13,2012-12-13
CDISCPILOT01,SV,01-701-1192,11.1,WEEK 22 (T),154.0,2012-12-27,2012-12-27
CDISCPILOT01,SV,01-701-1192,12.0,WEEK 24,168.0,2013-01-11,2013-01-11
CDISCPILOT01,SV,01-701-1192,13.0,WEEK 26,182.0,2013-01-20,2013-01-20
CDISCPILOT01,SV,01-701-1203,1.0,SCREENING 1,-7.0,2013-01-25,2013-01-25
CDISCPILOT01,SV,01-701-1203,2.0,SCREENING 2,-1.0,2013-02-01,2013-02-01
CDISCPILOT01,SV,01-701-1203,3.0,BASELINE,1.0,2013-02-02,2013-02-02
CDISCPILOT01,SV,01-701-1203,4.0,WEEK 2,14.0,2013-02-23,2013-02-23
CDISCPILOT01,SV,01-701-1203,5.0,WEEK 4,28.0,2013-03-02,2013-03-02
CDISCPILOT01,SV,01-701-1203,6.0,AMBUL ECG REMOVAL,30.0,2013-03-04,2013-03-04
CDISCPILOT01,SV,01-701-1203,7.0,WEEK 6,42.0,2013-03-16,2013-03-16
CDISCPILOT01,SV,01-701-1203,8.0,WEEK 8,56.0,2013-03-30,2013-03-30
CDISCPILOT01,SV,01-701-1203,8.1,WEEK 10 (T),70.0,2013-04-13,2013-04-13
CDISCPILOT01,SV,01-701-1203,9.0,WEEK 12,84.0,2013-05-09,2013-05-09
CDISCPILOT01,SV,01-701-1203,9.1,WEEK 14 (T),98.0,2013-05-11,2013-05-11
CDISCPILOT01,SV,01-701-1203,10.0,WEEK 16,112.0,2013-05-25,2013-05-25
CDISCPILOT01,SV,01-701-1203,10.1,WEEK 18 (T),126.0,2013-06-08,2013-06-08
CDISCPILOT01,SV,01-701-1203,11.0,WEEK 20,140.0,2013-06-22,2013-06-22
CDISCPILOT01,SV,01-701-1203,11.1,WEEK 22 (T),154.0,2013-07-07,2013-07-07
CDISCPILOT01,SV,01-701-1203,12.0,WEEK 24,168.0,2013-07-22,2013-07-22
CDISCPILOT01,SV,01-701-1203,13.0,WEEK 26,182.0,2013-08-03,2013-08-03
CDISCPILOT01,SV,01-701-1211,1.0,SCREENING 1,-7.0,2012-10-30,2012-10-30
CDISCPILOT01,SV,01-701-1211,2.0,SCREENING 2,-1.0,2012-11-14,2012-11-14
CDISCPILOT01,SV,01-701-1211,3.0,BASELINE,1.0,2012-11-15,2012-11-15
CDISCPILOT01,SV,01-701-1211,3.5,AMBUL ECG PLACEMENT,13.0,2012-11-27,2012-11-27
CDISCPILOT01,SV,01-701-1211,4.0,WEEK 2,14.0,2012-11-28,2012-11-28
CDISCPILOT01,SV,01-701-1211,5.0,WEEK 4,28.0,2012-12-11,2012-12-11
CDISCPILOT01,SV,01-701-1211,6.0,AMBUL ECG REMOVAL,30.0,2012-12-13,2012-12-13
CDISCPILOT01,SV,01-701-1211,7.0,WEEK 6,42.0,2012-12-25,2012-12-25
CDISCPILOT01,SV,01-701-1211,8.0,WEEK 8,56.0,2013-01-08,2013-01-08
CDISCPILOT01,SV,01-701-1211,9.0,WEEK 12,84.0,2013-01-14,2013-01-14
CDISCPILOT01,SV,01-701-1234,1.0,SCREENING 1,-7.0,2013-03-20,2013-03-20
CDISCPILOT01,SV,01-701-1234,2.0,SCREENING 2,-1.0,2013-03-28,2013-03-28
CDISCPILOT01,SV,01-701-1234,3.0,BASELINE,1.0,2013-03-30,2013-03-30
CDISCPILOT01,SV,01-701-1234,3.5,AMBUL ECG PLACEMENT,13.0,2013-04-20,2013-04-20
CDISCPILOT01,SV,01-701-1234,4.0,WEEK 2,14.0,2013-04-21,2013-04-21
CDISCPILOT01,SV,01-701-1234,5.0,WEEK 4,28.0,2013-04-28,2013-04-28
CDISCPILOT01,SV,01-701-1234,6.0,AMBUL ECG REMOVAL,30.0,2013-04-30,2013-04-30
CDISCPILOT01,SV,01-701-1234,7.0,WEEK 6,42.0,2013-05-08,2013-05-08
CDISCPILOT01,SV,01-701-1234,8.0,WEEK 8,56.0,2013-05-26,2013-05-26
CDISCPILOT01,SV,01-701-1234,8.1,WEEK 10 (T),70.0,2013-06-09,2013-06-09
CDISCPILOT01,SV,01-701-1234,9.0,WEEK 12,84.0,2013-07-07,2013-07-07
CDISCPILOT01,SV,01-701-1234,10.0,WEEK 16,112.0,2013-07-27,2013-07-27
CDISCPILOT01,SV,01-701-1234,10.1,WEEK 18 (T),126.0,2013-08-10,2013-08-10
CDISCPILOT01,SV,01-701-1234,11.0,WEEK 20,140.0,2013-08-18,2013-08-18
CDISCPILOT01,SV,01-701-1234,11.1,WEEK 22 (T),154.0,2013-09-01,2013-09-01
CDISCPILOT01,SV,01-701-1234,12.0,WEEK 24,168.0,2013-09-10,2013-09-10
CDISCPILOT01,SV,01-701-1234,13.0,WEEK 26,182.0,2013-09-22,2013-09-22
CDISCPILOT01,SV,01-701-1239,1.0,SCREENING 1,-7.0,2013-12-28,2013-12-28
CDISCPILOT01,SV,01-701-1239,1.1,UNSCHEDULED 1.1,,2014-01-06,2014-01-06
CDISCPILOT01,SV,01-701-1239,2.0,SCREENING 2,-1.0,2014-01-09,2014-01-09
CDISCPILOT01,SV,01-701-1239,3.0,BASELINE,1.0,2014-01-11,2014-01-11
CDISCPILOT01,SV,01-701-1239,3.5,AMBUL ECG PLACEMENT,13.0,2014-01-24,2014-01-24
CDISCPILOT01,SV,01-701-1239,4.0,WEEK 2,14.0,2014-01-25,2014-01-25
CDISCPILOT01,SV,01-701-1239,5.0,WEEK 4,28.0,2014-02-08,2014-02-08
CDISCPILOT01,SV,01-701-1239,6.0,AMBUL ECG REMOVAL,30.0,2014-02-10,2014-02-10
CDISCPILOT01,SV,01-701-1239,7.0,WEEK 6,42.0,2014-02-19,2014-02-19
CDISCPILOT01,SV,01-701-1239,8.0,WEEK 8,56.0,2014-03-06,2014-03-06
CDISCPILOT01,SV,01-701-1239,8.1,WEEK 10 (T),70.0,2014-03-19,2014-03-19
CDISCPILOT01,SV,01-701-1239,9.0,WEEK 12,84.0,2014-04-02,2014-04-02
CDISCPILOT01,SV,01-701-1239,9.1,WEEK 14 (T),98.0,2014-04-16,2014-04-16
CDISCPILOT01,SV,01-701-1239,10.0,WEEK 16,112.0,2014-05-02,2014-05-02
CDISCPILOT01,SV,01-701-1239,10.1,WEEK 18 (T),126.0,2014-05-14,2014-05-14
CDISCPILOT01,SV,01-701-1239,11.0,WEEK 20,140.0,2014-05-28,2014-05-28
CDISCPILOT01,SV,01-701-1239,11.1,WEEK 22 (T),154.0,2014-06-11,2014-06-11
CDISCPILOT01,SV,01-701-1239,12.0,WEEK 24,168.0,2014-06-27,2014-06-27
CDISCPILOT01,SV,01-701-1239,13.0,WEEK 26,182.0,2014-07-11,2014-07-11
CDISCPILOT01,SV,01-701-1240,1.0,SCREENING 1,-7.0,2013-09-22,2013-09-22
CDISCPILOT01,SV,01-701-1275,1.0,SCREENING 1,-7.0,2014-01-25,2014-01-25
CDISCPILOT01,SV,01-701-1275,2.0,SCREENING 2,-1.0,2014-02-05,2014-02-05
CDISCPILOT01,SV,01-701-1275,3.0,BASELINE,1.0,2014-02-07,2014-02-07
CDISCPILOT01,SV,01-701-1275,3.5,AMBUL ECG PLACEMENT,13.0,2014-02-21,2014-02-21
CDISCPILOT01,SV,01-701-1275,4.0,WEEK 2,14.0,2014-02-22,2014-02-22
CDISCPILOT01,SV,01-701-1275,5.0,WEEK 4,28.0,2014-03-07,2014-03-07
CDISCPILOT01,SV,01-701-1275,6.0,AMBUL ECG REMOVAL,30.0,2014-03-08,2014-03-08
CDISCPILOT01,SV,01-701-1275,7.0,WEEK 6,42.0,2014-03-22,2014-03-22
CDISCPILOT01,SV,01-701-1275,8.0,WEEK 8,56.0,2014-04-05,2014-04-05
CDISCPILOT01,SV,01-701-1275,8.1,WEEK 10 (T),70.0,2014-04-19,2014-04-19
CDISCPILOT01,SV,01-701-1275,9.0,WEEK 12,84.0,2014-05-03,2014-05-03
CDISCPILOT01,SV,01-701-1275,9.1,WEEK 14 (T),98.0,2014-05-17,2014-05-17
CDISCPILOT01,SV,01-701-1275,10.0,WEEK 16,112.0,2014-06-14,2014-06-14
CDISCPILOT01,SV,01-701-1287,1.0,SCREENING 1,-7.0,2014-01-17,2014-01-17
CDISCPILOT01,SV,01-701-1287,2.0,SCREENING 2,-1.0,2014-01-23,2014-01-23
CDISCPILOT01,SV,01-701-1287,3.0,BASELINE,1.0,2014-01-25,2014-01-25
CDISCPILOT01,SV,01-701-1287,4.0,WEEK 2,14.0,2014-02-11,2014-02-11
CDISCPILOT01,SV,01-701-1287,5.0,WEEK 4,28.0,2014-02-20,2014-02-20
CDISCPILOT01,SV,01-701-1287,6.0,AMBUL ECG REMOVAL,30.0,2014-02-22,2014-02-22
CDISCPILOT01,SV,01-701-1287,7.0,WEEK 6,42.0,2014-03-06,2014-03-06
CDISCPILOT01,SV,01-701-1287,8.0,WEEK 8,56.0,2014-03-21,2014-03-21
CDISCPILOT01,SV,01-701-1287,8.1,WEEK 10 (T),70.0,2014-04-03,2014-04-03
CDISCPILOT01,SV,01-701-1287,9.0,WEEK 12,84.0,2014-04-17,2014-04-17
CDISCPILOT01,SV,01-701-1287,9.1,WEEK 14 (T),98.0,2014-05-01,2014-05-01
CDISCPILOT01,SV,01-701-1287,10.0,WEEK 16,112.0,2014-05-15,2014-05-15
CDISCPILOT01,SV,01-701-1287,10.1,WEEK 18 (T),126.0,2014-05-29,2014-05-29
CDISCPILOT01,SV,01-701-1287,11.0,WEEK 20,140.0,2014-06-12,2014-06-12
CDISCPILOT01,SV,01-701-1287,11.1,WEEK 22 (T),154.0,2014-06-26,2014-06-26
CDISCPILOT01,SV,01-701-1287,12.0,WEEK 24,168.0,2014-07-12,2014-07-12
CDISCPILOT01,SV,01-701-1287,13.0,WEEK 26,182.0,2014-07-26,2014-07-26
CDISCPILOT01,SV,01-701-1294,1.0,SCREENING 1,-7.0,2013-03-17,2013-03-17
CDISCPILOT01,SV,01-701-1294,2.0,SCREENING 2,-1.0,2013-03-22,2013-03-22
CDISCPILOT01,SV,01-701-1294,3.0,BASELINE,1.0,2013-03-24,2013-03-24
CDISCPILOT01,SV,01-701-1294,3.5,AMBUL ECG PLACEMENT,13.0,2013-04-09,2013-04-09
CDISCPILOT01,SV,01-701-1294,4.0,WEEK 2,14.0,2013-04-10,2013-04-10
CDISCPILOT01,SV,01-701-1294,5.0,WEEK 4,28.0,2013-04-24,2013-04-24
CDISCPILOT01,SV,01-701-1294,6.0,AMBUL ECG REMOVAL,30.0,2013-04-26,2013-04-26
CDISCPILOT01,SV,01-701-1294,7.0,WEEK 6,42.0,2013-05-08,2013-05-08
CDISCPILOT01,SV,01-701-1294,8.0,WEEK 8,56.0,2013-05-22,2013-05-22
CDISCPILOT01,SV,01-701-1294,8.1,WEEK 10 (T),70.0,2013-06-05,2013-06-05
CDISCPILOT01,SV,01-701-1294,9.0,WEEK 12,84.0,2013-06-14,2013-06-14
CDISCPILOT01,SV,01-701-1294,101.0,AE FOLLOW-UP,,2013-08-23,2013-08-23
CDISCPILOT01,SV,01-701-1294,201.0,RETRIEVAL,168.0,2013-10-08,2013-10-08
CDISCPILOT01,SV,01-701-1302,1.0,SCREENING 1,-7.0,2013-08-20,2013-08-20
CDISCPILOT01,SV,01-701-1302,2.0,SCREENING 2,-1.0,2013-08-27,2013-08-27
CDISCPILOT01,SV,01-701-1302,3.0,BASELINE,1.0,2013-08-29,2013-08-29
CDISCPILOT01,SV,01-701-1302,3.5,AMBUL ECG PLACEMENT,13.0,2013-09-09,2013-09-09
CDISCPILOT01,SV,01-701-1302,4.0,WEEK 2,14.0,2013-09-15,2013-09-15
CDISCPILOT01,SV,01-701-1302,5.0,WEEK 4,28.0,2013-09-24,2013-09-24
CDISCPILOT01,SV,01-701-1302,6.0,AMBUL ECG REMOVAL,30.0,2013-09-26,2013-09-26
CDISCPILOT01,SV,01-701-1302,7.0,WEEK 6,42.0,2013-10-08,2013-10-08
CDISCPILOT01,SV,01-701-1302,8.0,WEEK 8,56.0,2013-10-22,2013-10-22
CDISCPILOT01,SV,01-701-1302,9.0,WEEK 12,84.0,2013-11-05,2013-11-05
CDISCPILOT01,SV,01-701-1302,101.0,AE FOLLOW-UP,,2013-12-16,2013-12-16
CDISCPILOT01,SV,01-701-1302,201.0,RETRIEVAL,168.0,2014-02-13,2014-02-13
CDISCPILOT01,SV,01-701-1307,1.0,SCREENING 1,-7.0,2013-12-08,2013-12-08
CDISCPILOT01,SV,01-701-1317,1.0,SCREENING 1,-7.0,2014-05-10,2014-05-10
CDISCPILOT01,SV,01-701-1317,1.1,UNSCHEDULED 1.1,,2014-05-10,2014-05-10
CDISCPILOT01,SV,01-701-1317,2.0,SCREENING 2,-1.0,2014-05-20,2014-05-20
CDISCPILOT01,SV,01-701-1317,3.0,BASELINE,1.0,2014-05-22,2014-05-22
CDISCPILOT01,SV,01-701-1317,3.5,AMBUL ECG PLACEMENT,13.0,2014-06-04,2014-06-04
CDISCPILOT01,SV,01-701-1317,4.0,WEEK 2,14.0,2014-06-05,2014-06-05
CDISCPILOT01,SV,01-701-1317,5.0,WEEK 4,28.0,2014-06-19,2014-06-19
CDISCPILOT01,SV,01-701-1317,6.0,AMBUL ECG REMOVAL,30.0,2014-06-21,2014-06-21
CDISCPILOT01,SV,01-701-1317,7.0,WEEK 6,42.0,2014-07-03,2014-07-03
CDISCPILOT01,SV,01-701-1317,8.0,WEEK 8,56.0,2014-07-22,2014-07-22
CDISCPILOT01,SV,01-701-1317,8.1,WEEK 10 (T),70.0,2014-07-30,2014-07-30
CDISCPILOT01,SV,01-701-1317,9.0,WEEK 12,84.0,2014-08-15,2014-08-15
CDISCPILOT01,SV,01-701-1317,9.1,WEEK 14 (T),98.0,2014-08-28,2014-08-28
CDISCPILOT01,SV,01-701-1317,10.0,WEEK 16,112.0,2014-09-11,2014-09-11
CDISCPILOT01,SV,01-701-1317,10.1,WEEK 18 (T),126.0,2014-09-25,2014-09-25
CDISCPILOT01,SV,01-701-1317,11.0,WEEK 20,140.0,2014-10-09,2014-10-09
CDISCPILOT01,SV,01-701-1317,11.1,WEEK 22 (T),154.0,2014-10-23,2014-10-23
CDISCPILOT01,SV,01-701-1317,12.0,WEEK 24,168.0,2014-11-06,2014-11-06
CDISCPILOT01,SV,01-701-1317,13.0,WEEK 26,182.0,2014-11-20,2014-11-20
CDISCPILOT01,SV,01-701-1324,1.0,SCREENING 1,-7.0,2012-09-16,2012-09-16
CDISCPILOT01,SV,01-701-1324,1.1,UNSCHEDULED 1.1,,2012-09-25,2012-09-25
CDISCPILOT01,SV,01-701-1324,2.0,SCREENING 2,-1.0,2012-09-25,2012-09-25
CDISCPILOT01,SV,01-701-1324,3.0,BASELINE,1.0,2012-10-02,2012-10-02
CDISCPILOT01,SV,01-701-1324,3.5,AMBUL ECG PLACEMENT,13.0,2012-10-15,2012-10-15
CDISCPILOT01,SV,01-701-1324,4.0,WEEK 2,14.0,2012-10-16,2012-10-16
CDISCPILOT01,SV,01-701-1324,4.1,UNSCHEDULED 4.1,,2012-10-25,2012-10-25
CDISCPILOT01,SV,01-701-1324,5.0,WEEK 4,28.0,2012-10-30,2012-10-30
CDISCPILOT01,SV,01-701-1324,6.0,AMBUL ECG REMOVAL,30.0,2012-11-01,2012-11-01
CDISCPILOT01,SV,01-701-1324,7.0,WEEK 6,42.0,2012-11-13,2012-11-13
CDISCPILOT01,SV,01-701-1324,8.0,WEEK 8,56.0,2012-11-25,2012-11-25
CDISCPILOT01,SV,01-701-1324,8.1,WEEK 10 (T),70.0,2012-12-11,2012-12-11
CDISCPILOT01,SV,01-701-1324,9.0,WEEK 12,84.0,2012-12-25,2012-12-25
CDISCPILOT01,SV,01-701-1324,9.1,WEEK 14 (T),98.0,2013-01-08,2013-01-08
CDISCPILOT01,SV,01-701-1324,10.0,WEEK 16,112.0,2013-01-22,2013-01-22
CDISCPILOT01,SV,01-701-1324,10.1,WEEK 18 (T),126.0,2013-02-05,2013-02-05
CDISCPILOT01,SV,01-701-1324,11.0,WEEK 20,140.0,2013-02-19,2013-02-19
CDISCPILOT01,SV,01-701-1324,11.1,WEEK 22 (T),154.0,2013-03-05,2013-03-05
CDISCPILOT01,SV,01-701-1324,12.0,WEEK 24,168.0,2013-03-19,2013-03-19
CDISCPILOT01,SV,01-701-1324,13.0,WEEK 26,182.0,2013-04-02,2013-04-02
CDISCPILOT01,SV,01-701-1341,1.0,SCREENING 1,-7.0,2012-12-22,2012-12-22
CDISCPILOT01,SV,01-701-1341,1.1,UNSCHEDULED 1.1,,2012-12-26,2012-12-26
CDISCPILOT01,SV,01-701-1341,2.0,SCREENING 2,-1.0,2013-01-03,2013-01-03
CDISCPILOT01,SV,01-701-1341,3.0,BASELINE,1.0,2013-01-05,2013-01-05
CDISCPILOT01,SV,01-701-1341,3.5,AMBUL ECG PLACEMENT,13.0,2013-01-17,2013-01-17
CDISCPILOT01,SV,01-701-1341,4.0,WEEK 2,14.0,2013-01-18,2013-01-18
CDISCPILOT01,SV,01-701-1341,5.0,WEEK 4,28.0,2013-02-07,2013-02-07
CDISCPILOT01,SV,01-701-1341,101.0,AE FOLLOW-UP,,2013-02-21,2013-02-21
CDISCPILOT01,SV,01-701-1345,1.0,SCREENING 1,-7.0,2013-10-01,2013-10-01
CDISCPILOT01,SV,01-701-1345,2.0,SCREENING 2,-1.0,2013-10-06,2013-10-06
CDISCPILOT01,SV,01-701-1345,3.0,BASELINE,1.0,2013-10-08,2013-10-08
CDISCPILOT01,SV,01-701-1345,3.5,AMBUL ECG PLACEMENT,13.0,2013-10-23,2013-10-23
CDISCPILOT01,SV,01-701-1345,4.0,WEEK 2,14.0,2013-10-24,2013-10-24
CDISCPILOT01,SV,01-701-1345,5.0,WEEK 4,28.0,2013-11-08,2013-11-08
CDISCPILOT01,SV,01-701-1345,6.0,AMBUL ECG REMOVAL,30.0,2013-11-10,2013-11-10
CDISCPILOT01,SV,01-701-1345,7.0,WEEK 6,42.0,2013-11-19,2013-11-19
CDISCPILOT01,SV,01-701-1345,8.0,WEEK 8,56.0,2013-12-03,2013-12-03
CDISCPILOT01,SV,01-701-1345,8.1,WEEK 10 (T),70.0,2013-12-18,2013-12-18
CDISCPILOT01,SV,01-701-1345,9.0,WEEK 12,84.0,2013-12-31,2013-12-31
CDISCPILOT01,SV,01-701-1345,9.1,WEEK 14 (T),98.0,2014-01-14,2014-01-14
CDISCPILOT01,SV,01-701-1345,10.0,WEEK 16,112.0,2014-01-27,2014-01-27
CDISCPILOT01,SV,01-701-1345,10.1,WEEK 18 (T),126.0,2014-02-11,2014-02-11
CDISCPILOT01,SV,01-701-1345,11.0,WEEK 20,140.0,2014-02-25,2014-02-25
CDISCPILOT01,SV,01-701-1345,11.1,WEEK 22 (T),154.0,2014-03-11,2014-03-11
CDISCPILOT01,SV,01-701-1345,12.0,WEEK 24,168.0,2014-03-18,2014-03-18
CDISCPILOT01,SV,01-701-1356,1.0,SCREENING 1,-7.0,2014-04-01,2014-04-01
CDISCPILOT01,SV,01-701-1360,1.0,SCREENING 1,-7.0,2013-07-24,2013-07-24
CDISCPILOT01,SV,01-701-1360,2.0,SCREENING 2,-1.0,2013-07-29,2013-07-29
CDISCPILOT01,SV,01-701-1360,3.0,BASELINE,1.0,2013-07-31,2013-07-31
CDISCPILOT01,SV,01-701-1360,4.0,WEEK 2,14.0,2013-08-14,2013-08-14
CDISCPILOT01,SV,01-701-1360,101.0,AE FOLLOW-UP,,2013-09-09,2013-09-09
CDISCPILOT01,SV,01-701-1360,201.0,RETRIEVAL,168.0,2014-02-11,2014-02-11
CDISCPILOT01,SV,01-701-1363,1.0,SCREENING 1,-7.0,2013-05-20,2013-05-20
CDISCPILOT01,SV,01-701-1363,2.0,SCREENING 2,-1.0,2013-05-28,2013-05-28
CDISCPILOT01,SV,01-701-1363,3.0,BASELINE,1.0,2013-05-30,2013-05-30
CDISCPILOT01,SV,01-701-1363,3.5,AMBUL ECG PLACEMENT,13.0,2013-06-11,2013-06-11
CDISCPILOT01,SV,01-701-1363,4.0,WEEK 2,14.0,2013-06-12,2013-06-12
CDISCPILOT01,SV,01-701-1363,5.0,WEEK 4,28.0,2013-06-25,2013-06-25
CDISCPILOT01,SV,01-701-1363,6.0,AMBUL ECG REMOVAL,30.0,2013-06-27,2013-06-27
CDISCPILOT01,SV,01-701-1363,7.0,WEEK 6,42.0,2013-07-10,2013-07-10
CDISCPILOT01,SV,01-701-1363,8.0,WEEK 8,56.0,2013-07-24,2013-07-24
CDISCPILOT01,SV,01-701-1363,8.1,WEEK 10 (T),70.0,2013-08-07,2013-08-07
CDISCPILOT01,SV,01-701-1363,9.0,WEEK 12,84.0,2013-08-21,2013-08-21
CDISCPILOT01,SV,01-701-1363,9.1,WEEK 14 (T),98.0,2013-09-04,2013-09-04
CDISCPILOT01,SV,01-701-1363,10.0,WEEK 16,112.0,2013-09-18,2013-09-18
CDISCPILOT01,SV,01-701-1363,10.1,WEEK 18 (T),126.0,2013-10-02,2013-10-02
CDISCPILOT01,SV,01-701-1363,10.2,UNSCHEDULED 10.2,,2013-10-02,2013-10-02
CDISCPILOT01,SV,01-701-1363,11.0,WEEK 20,140.0,2013-10-14,2013-10-14
CDISCPILOT01,SV,01-701-1363,11.1,WEEK 22 (T),154.0,2013-10-30,2013-10-30
CDISCPILOT01,SV,01-701-1363,12.0,WEEK 24,168.0,2013-11-13,2013-11-13
CDISCPILOT01,SV,01-701-1363,13.0,WEEK 26,182.0,2013-11-27,2013-11-27
CDISCPILOT01,SV,01-701-1369,1.0,SCREENING 1,-7.0,2013-09-18,2013-09-18
CDISCPILOT01,SV,01-701-1383,1.0,SCREENING 1,-7.0,2013-01-22,2013-01-22
CDISCPILOT01,SV,01-701-1383,2.0,SCREENING 2,-1.0,2013-02-02,2013-02-02
CDISCPILOT01,SV,01-701-1383,3.0,BASELINE,1.0,2013-02-04,2013-02-04
CDISCPILOT01,SV,01-701-1383,3.5,AMBUL ECG PLACEMENT,13.0,2013-02-18,2013-02-18
CDISCPILOT01,SV,01-701-1383,4.0,WEEK 2,14.0,2013-02-19,2013-02-19
CDISCPILOT01,SV,01-701-1383,5.0,WEEK 4,28.0,2013-03-12,2013-03-12
CDISCPILOT01,SV,01-701-1383,6.0,AMBUL ECG REMOVAL,30.0,2013-03-14,2013-03-14
CDISCPILOT01,SV,01-701-1383,7.0,WEEK 6,42.0,2013-03-19,2013-03-19
CDISCPILOT01,SV,01-701-1383,8.0,WEEK 8,56.0,2013-04-02,2013-04-02
CDISCPILOT01,SV,01-701-1383,8.1,WEEK 10 (T),70.0,2013-04-16,2013-04-16
CDISCPILOT01,SV,01-701-1383,9.0,WEEK 12,84.0,2013-04-30,2013-04-30
CDISCPILOT01,SV,01-701-1383,9.1,WEEK 14 (T),98.0,2013-05-14,2013-05-14
CDISCPILOT01,SV,01-701-1383,10.0,WEEK 16,112.0,2013-05-30,2013-05-30
CDISCPILOT01,SV,01-701-1383,10.1,WEEK 18 (T),126.0,2013-06-13,2013-06-13
CDISCPILOT01,SV,01-701-1383,11.0,WEEK 20,140.0,2013-06-25,2013-06-25
CDISCPILOT01,SV,01-701-1383,11.1,WEEK 22 (T),154.0,2013-07-09,2013-07-09
CDISCPILOT01,SV,01-701-1383,12.0,WEEK 24,168.0,2013-07-30,2013-07-30
CDISCPILOT01,SV,01-701-1383,13.0,WEEK 26,182.0,2013-08-06,2013-08-06
CDISCPILOT01,SV,01-701-1386,1.0,SCREENING 1,-7.0,2013-12-28,2013-12-28
CDISCPILOT01,SV,01-701-1387,1.0,SCREENING 1,-7.0,2014-02-23,2014-02-23
CDISCPILOT01,SV,01-701-1387,2.0,SCREENING 2,-1.0,2014-03-08,2014-03-08
CDISCPILOT01,SV,01-701-1387,3.0,BASELINE,1.0,2014-03-12,2014-03-12
CDISCPILOT01,SV,01-701-1387,4.0,WEEK 2,14.0,2014-03-25,2014-03-25
CDISCPILOT01,SV,01-701-1387,201.0,RETRIEVAL,168.0,2014-08-27,2014-08-27
CDISCPILOT01,SV,01-701-1392,1.0,SCREENING 1,-7.0,2012-10-17,2012-10-17
CDISCPILOT01,SV,01-701-1392,2.0,SCREENING 2,-1.0,2012-10-26,2012-10-26
CDISCPILOT01,SV,01-701-1392,3.0,BASELINE,1.0,2012-10-28,2012-10-28
CDISCPILOT01,SV,01-701-1392,3.5,AMBUL ECG PLACEMENT,13.0,2012-11-10,2012-11-10
CDISCPILOT01,SV,01-701-1392,4.0,WEEK 2,14.0,2012-11-11,2012-11-11
CDISCPILOT01,SV,01-701-1392,5.0,WEEK 4,28.0,2012-11-24,2012-11-24
CDISCPILOT01,SV,01-701-1392,6.0,AMBUL ECG REMOVAL,30.0,2012-11-26,2012-11-26
CDISCPILOT01,SV,01-701-1392,7.0,WEEK 6,42.0,2012-12-09,2012-12-09
CDISCPILOT01,SV,01-701-1392,8.0,WEEK 8,56.0,2012-12-20,2012-12-20
CDISCPILOT01,SV,01-701-1392,8.1,WEEK 10 (T),70.0,2013-01-06,2013-01-06
CDISCPILOT01,SV,01-701-1392,9.0,WEEK 12,84.0,2013-01-20,2013-01-20
CDISCPILOT01,SV,01-701-1392,9.1,WEEK 14 (T),98.0,2013-02-03,2013-02-03
CDISCPILOT01,SV,01-701-1392,10.0,WEEK 16,112.0,2013-02-17,2013-02-17
CDISCPILOT01,SV,01-701-1392,10.1,WEEK 18 (T),126.0,2013-03-03,2013-03-03
CDISCPILOT01,SV,01-701-1392,11.0,WEEK 20,140.0,2013-03-17,2013-03-17
CDISCPILOT01,SV,01-701-1392,11.1,WEEK 22 (T),154.0,2013-03-31,2013-03-31
CDISCPILOT01,SV,01-701-1392,12.0,WEEK 24,168.0,2013-04-15,2013-04-15
CDISCPILOT01,SV,01-701-1392,13.0,WEEK 26,182.0,2013-04-28,2013-04-28
CDISCPILOT01,SV,01-701-1411,1.0,SCREENING 1,-7.0,2012-11-14,2012-11-14
CDISCPILOT01,SV,01-701-1415,1.0,SCREENING 1,-7.0,2013-09-15,2013-09-15
CDISCPILOT01,SV,01-701-1415,1.1,UNSCHEDULED 1.1,,2013-09-21,2013-09-21
CDISCPILOT01,SV,01-701-1415,2.0,SCREENING 2,-1.0,2013-09-21,2013-09-21
CDISCPILOT01,SV,01-701-1415,3.0,BASELINE,1.0,2013-09-23,2013-09-23
CDISCPILOT01,SV,01-701-1415,3.5,AMBUL ECG PLACEMENT,13.0,2013-10-06,2013-10-06
CDISCPILOT01,SV,01-701-1415,4.0,WEEK 2,14.0,2013-10-07,2013-10-07
CDISCPILOT01,SV,01-701-1415,5.0,WEEK 4,28.0,2013-10-20,2013-10-20
CDISCPILOT01,SV,01-701-1415,6.0,AMBUL ECG REMOVAL,30.0,2013-10-22,2013-10-22
CDISCPILOT01,SV,01-701-1415,7.0,WEEK 6,42.0,2013-11-04,2013-11-04
CDISCPILOT01,SV,01-701-1415,8.0,WEEK 8,56.0,2013-11-21,2013-11-21
CDISCPILOT01,SV,01-701-1415,8.1,WEEK 10 (T),70.0,2013-12-02,2013-12-02
CDISCPILOT01,SV,01-701-1415,9.0,WEEK 12,84.0,2013-12-21,2013-12-21
CDISCPILOT01,SV,01-701-1415,9.1,WEEK 14 (T),98.0,2013-12-30,2013-12-30
CDISCPILOT01,SV,01-701-1415,10.0,WEEK 16,112.0,2014-01-14,2014-01-14
CDISCPILOT01,SV,01-701-1415,10.1,WEEK 18 (T),126.0,2014-01-27,2014-01-27
CDISCPILOT01,SV,01-701-1415,11.0,WEEK 20,140.0,2014-02-10,2014-02-10
CDISCPILOT01,SV,01-701-1415,11.1,WEEK 22 (T),154.0,2014-02-24,2014-02-24
CDISCPILOT01,SV,01-701-1415,12.0,WEEK 24,168.0,2014-03-10,2014-03-10
CDISCPILOT01,SV,01-701-1415,13.0,WEEK 26,182.0,2014-03-24,2014-03-24
CDISCPILOT01,SV,01-701-1429,1.0,SCREENING 1,-7.0,2013-02-25,2013-02-25
CDISCPILOT01,SV,01-701-1429,2.0,SCREENING 2,-1.0,2013-03-17,2013-03-17
CDISCPILOT01,SV,01-701-1429,3.0,BASELINE,1.0,2013-03-19,2013-03-19
CDISCPILOT01,SV,01-701-1429,4.0,WEEK 2,14.0,2013-04-02,2013-04-02
CDISCPILOT01,SV,01-701-1429,5.0,WEEK 4,28.0,2013-04-16,2013-04-16
CDISCPILOT01,SV,01-701-1429,7.0,WEEK 6,42.0,2013-04-30,2013-04-30
CDISCPILOT01,SV,01-701-1440,1.0,SCREENING 1,-7.0,2013-07-24,2013-07-24
CDISCPILOT01,SV,01-701-1440,2.0,SCREENING 2,-1.0,2013-08-06,2013-08-06
CDISCPILOT01,SV,01-701-1440,3.0,BASELINE,1.0,2013-08-08,2013-08-08
CDISCPILOT01,SV,01-701-1440,3.5,AMBUL ECG PLACEMENT,13.0,2013-08-22,2013-08-22
CDISCPILOT01,SV,01-701-1440,4.0,WEEK 2,14.0,2013-08-23,2013-08-23
CDISCPILOT01,SV,01-701-1440,5.0,WEEK 4,28.0,2013-09-04,2013-09-04
CDISCPILOT01,SV,01-701-1440,6.0,AMBUL ECG REMOVAL,30.0,2013-09-06,2013-09-06
CDISCPILOT01,SV,01-701-1440,7.0,WEEK 6,42.0,2013-09-22,2013-09-22
CDISCPILOT01,SV,01-701-1440,8.0,WEEK 8,56.0,2013-10-03,2013-10-03
CDISCPILOT01,SV,01-701-1440,8.1,WEEK 10 (T),70.0,2013-10-17,2013-10-17
CDISCPILOT01,SV,01-701-1440,9.0,WEEK 12,84.0,2013-10-31,2013-10-31
CDISCPILOT01,SV,01-701-1440,9.1,WEEK 14 (T),98.0,2013-11-14,2013-11-14
CDISCPILOT01,SV,01-701-1440,10.0,WEEK 16,112.0,2013-11-27,2013-11-27
CDISCPILOT01,SV,01-701-1440,10.1,WEEK 18 (T),126.0,2013-12-12,2013-12-12
CDISCPILOT01,SV,01-701-1440,11.0,WEEK 20,140.0,2013-12-25,2013-12-25
CDISCPILOT01,SV,01-701-1440,11.1,WEEK 22 (T),154.0,2014-01-08,2014-01-08
CDISCPILOT01,SV,01-701-1440,12.0,WEEK 24,168.0,2014-01-22,2014-01-22
CDISCPILOT01,SV,01-701-1440,13.0,WEEK 26,182.0,2014-02-05,2014-02-05
CDISCPILOT01,SV,01-701-1442,1.0,SCREENING 1,-7.0,2013-10-17,2013-10-17
CDISCPILOT01,SV,01-701-1442,2.0,SCREENING 2,-1.0,2013-10-24,2013-10-24
CDISCPILOT01,SV,01-701-1442,3.0,BASELINE,1.0,2013-10-26,2013-10-26
CDISCPILOT01,SV,01-701-1442,3.5,AMBUL ECG PLACEMENT,13.0,2013-11-08,2013-11-08
CDISCPILOT01,SV,01-701-1442,4.0,WEEK 2,14.0,2013-11-09,2013-11-09
CDISCPILOT01,SV,01-701-1442,5.0,WEEK 4,28.0,2013-11-23,2013-11-23
CDISCPILOT01,SV,01-701-1442,6.0,AMBUL ECG REMOVAL,30.0,2013-11-25,2013-11-25
CDISCPILOT01,SV,01-701-1442,7.0,WEEK 6,42.0,2013-12-07,2013-12-07
CDISCPILOT01,SV,01-701-1442,8.0,WEEK 8,56.0,2013-12-26,2013-12-26
CDISCPILOT01,SV,01-701-1442,8.1,WEEK 10 (T),70.0,2014-01-04,2014-01-04
CDISCPILOT01,SV,01-701-1442,9.0,WEEK 12,84.0,2014-01-18,2014-01-18
CDISCPILOT01,SV,01-701-1442,9.1,WEEK 14 (T),98.0,2014-02-01,2014-02-01
CDISCPILOT01,SV,01-701-1442,10.0,WEEK 16,112.0,2014-02-15,2014-02-15
CDISCPILOT01,SV,01-701-1442,10.1,WEEK 18 (T),126.0,2014-03-01,2014-03-01
CDISCPILOT01,SV,01-701-1442,11.0,WEEK 20,140.0,2014-03-15,2014-03-15
CDISCPILOT01,SV,01-701-1442,11.1,WEEK 22 (T),154.0,2014-03-29,2014-03-29
CDISCPILOT01,SV,01-701-1442,12.0,WEEK 24,168.0,2014-04-17,2014-04-17
CDISCPILOT01,SV,01-701-1442,13.0,WEEK 26,182.0,2014-04-26,2014-04-26
CDISCPILOT01,SV,01-701-1444,1.0,SCREENING 1,-7.0,2012-12-31,2012-12-31
CDISCPILOT01,SV,01-701-1444,2.0,SCREENING 2,-1.0,2013-01-03,2013-01-03
CDISCPILOT01,SV,01-701-1444,3.0,BASELINE,1.0,2013-01-05,2013-01-05
CDISCPILOT01,SV,01-701-1444,3.5,AMBUL ECG PLACEMENT,13.0,2013-01-17,2013-01-17
CDISCPILOT01,SV,01-701-1444,4.0,WEEK 2,14.0,2013-01-18,2013-01-18
CDISCPILOT01,SV,01-701-1444,5.0,WEEK 4,28.0,2013-01-31,2013-01-31
CDISCPILOT01,SV,01-701-1444,6.0,AMBUL ECG REMOVAL,30.0,2013-02-02,2013-02-02
CDISCPILOT01,SV,01-701-1444,7.0,WEEK 6,42.0,2013-02-13,2013-02-13
CDISCPILOT01,SV,01-701-1444,101.0,AE FOLLOW-UP,,2013-06-20,2013-06-20
CDISCPILOT01,SV,01-701-1444,201.0,RETRIEVAL,168.0,2013-06-20,2013-06-20
CDISCPILOT01,SV,01-702-1082,1.0,SCREENING 1,-7.0,2013-07-03,2013-07-03
CDISCPILOT01,SV,01-702-1082,1.1,UNSCHEDULED 1.1,,2013-07-24,2013-07-24
CDISCPILOT01,SV,01-702-1082,2.0,SCREENING 2,-1.0,2013-07-24,2013-07-24
CDISCPILOT01,SV,01-702-1082,3.0,BASELINE,1.0,2013-07-26,2013-07-26
CDISCPILOT01,SV,01-702-1082,3.5,AMBUL ECG PLACEMENT,13.0,2013-08-07,2013-08-07
CDISCPILOT01,SV,01-702-1082,4.0,WEEK 2,14.0,2013-08-08,2013-08-08
CDISCPILOT01,SV,01-702-1082,5.0,WEEK 4,28.0,2013-08-24,2013-08-24
CDISCPILOT01,SV,01-702-1082,6.0,AMBUL ECG REMOVAL,30.0,2013-09-04,2013-09-04
CDISCPILOT01,SV,01-702-1082,7.0,WEEK 6,42.0,2013-09-06,2013-09-06
CDISCPILOT01,SV,01-702-1082,8.0,WEEK 8,56.0,2013-09-28,2013-09-28
CDISCPILOT01,SV,01-702-1082,8.1,WEEK 10 (T),70.0,2013-10-12,2013-10-12
CDISCPILOT01,SV,01-702-1082,9.0,WEEK 12,84.0,2013-11-17,2013-11-17
CDISCPILOT01,SV,01-703-1042,1.0,SCREENING 1,-7.0,2013-02-23,2013-02-23
CDISCPILOT01,SV,01-703-1042,1.1,UNSCHEDULED 1.1,,2013-02-21,2013-02-21
CDISCPILOT01,SV,01-703-1042,2.0,SCREENING 2,-1.0,2013-02-28,2013-02-28
CDISCPILOT01,SV,01-703-1042,3.0,BASELINE,1.0,2013-03-02,2013-03-02
CDISCPILOT01,SV,01-703-1042,3.5,AMBUL ECG PLACEMENT,13.0,2013-03-13,2013-03-13
CDISCPILOT01,SV,01-703-1042,4.0,WEEK 2,14.0,2013-03-14,2013-03-14
CDISCPILOT01,SV,01-703-1042,5.0,WEEK 4,28.0,2013-03-28,2013-03-28
CDISCPILOT01,SV,01-703-1042,6.0,AMBUL ECG REMOVAL,30.0,2013-03-30,2013-03-30
CDISCPILOT01,SV,01-703-1042,7.0,WEEK 6,42.0,2013-04-13,2013-04-13
CDISCPILOT01,SV,01-703-1042,8.0,WEEK 8,56.0,2013-04-27,2013-04-27
CDISCPILOT01,SV,01-703-1042,8.1,WEEK 10 (T),70.0,2013-05-11,2013-05-11
CDISCPILOT01,SV,01-703-1042,9.0,WEEK 12,84.0,2013-05-25,2013-05-25
CDISCPILOT01,SV,01-703-1042,9.1,WEEK 14 (T),98.0,2013-06-08,2013-06-08
CDISCPILOT01,SV,01-703-1042,10.0,WEEK 16,112.0,2013-06-22,2013-06-22
CDISCPILOT01,SV,01-703-1042,10.1,WEEK 18 (T),126.0,2013-07-06,2013-07-06
CDISCPILOT01,SV,01-703-1042,11.0,WEEK 20,140.0,2013-07-20,2013-07-20
CDISCPILOT01,SV,01-703-1042,11.1,WEEK 22 (T),154.0,2013-08-03,2013-08-03
CDISCPILOT01,SV,01-703-1042,12.0,WEEK 24,168.0,2013-08-09,2013-08-09
CDISCPILOT01,SV,01-703-1042,13.0,WEEK 26,182.0,2013-08-31,2013-08-31
CDISCPILOT01,SV,01-703-1076,1.0,SCREENING 1,-7.0,2013-10-17,2013-10-17
CDISCPILOT01,SV,01-703-1076,2.0,SCREENING 2,-1.0,2013-10-23,2013-10-23
CDISCPILOT01,SV,01-703-1076,3.0,BASELINE,1.0,2013-10-25,2013-10-25
CDISCPILOT01,SV,01-703-1076,3.5,AMBUL ECG PLACEMENT,13.0,2013-11-05,2013-11-05
CDISCPILOT01,SV,01-703-1076,4.0,WEEK 2,14.0,2013-11-06,2013-11-06
CDISCPILOT01,SV,01-703-1076,5.0,WEEK 4,28.0,2013-11-20,2013-11-20
CDISCPILOT01,SV,01-703-1076,6.0,AMBUL ECG REMOVAL,30.0,2013-11-22,2013-11-22
CDISCPILOT01,SV,01-703-1076,7.0,WEEK 6,42.0,2013-12-04,2013-12-04
CDISCPILOT01,SV,01-703-1076,8.0,WEEK 8,56.0,2013-12-17,2013-12-17
CDISCPILOT01,SV,01-703-1076,9.0,WEEK 12,84.0,2013-12-24,2013-12-24
CDISCPILOT01,SV,01-703-1076,101.0,AE FOLLOW-UP,,2014-01-21,2014-01-21
CDISCPILOT01,SV,01-703-1086,1.0,SCREENING 1,-7.0,2012-08-22,2012-08-22
CDISCPILOT01,SV,01-703-1086,1.1,UNSCHEDULED 1.1,,2012-08-31,2012-08-31
CDISCPILOT01,SV,01-703-1086,2.0,SCREENING 2,-1.0,2012-08-31,2012-08-31
CDISCPILOT01,SV,01-703-1086,3.0,BASELINE,1.0,2012-09-02,2012-09-02
CDISCPILOT01,SV,01-703-1086,3.5,AMBUL ECG PLACEMENT,13.0,2012-09-15,2012-09-15
CDISCPILOT01,SV,01-703-1086,4.0,WEEK 2,14.0,2012-09-16,2012-09-16
CDISCPILOT01,SV,01-703-1086,5.0,WEEK 4,28.0,2012-09-30,2012-09-30
CDISCPILOT01,SV,01-703-1086,6.0,AMBUL ECG REMOVAL,30.0,2012-10-02,2012-10-02
CDISCPILOT01,SV,01-703-1086,7.0,WEEK 6,42.0,2012-10-13,2012-10-13
CDISCPILOT01,SV,01-703-1086,8.0,WEEK 8,56.0,2012-10-27,2012-10-27
CDISCPILOT01,SV,01-703-1086,8.1,WEEK 10 (T),70.0,2012-11-10,2012-11-10
CDISCPILOT01,SV,01-703-1086,9.0,WEEK 12,84.0,2012-11-27,2012-11-27
CDISCPILOT01,SV,01-703-1086,9.1,WEEK 14 (T),98.0,2012-12-11,2012-12-11
CDISCPILOT01,SV,01-703-1086,10.0,WEEK 16,112.0,2012-12-24,2012-12-24
CDISCPILOT01,SV,01-703-1086,101.0,AE FOLLOW-UP,,2013-01-02,2013-01-02
CDISCPILOT01,SV,01-703-1086,201.0,RETRIEVAL,168.0,2013-03-26,2013-03-26
CDISCPILOT01,SV,01-703-1096,1.0,SCREENING 1,-7.0,2012-12-19,2012-12-19
CDISCPILOT01,SV,01-703-1096,1.1,UNSCHEDULED 1.1,,2012-12-19,2012-12-19
CDISCPILOT01,SV,01-703-1096,1.2,UNSCHEDULED 1.2,,2012-12-29,2012-12-29
CDISCPILOT01,SV,01-703-1096,1.3,UNSCHEDULED 1.3,,2013-01-23,2013-01-23
CDISCPILOT01,SV,01-703-1096,2.0,SCREENING 2,-1.0,2013-01-23,2013-01-23
CDISCPILOT01,SV,01-703-1096,3.0,BASELINE,1.0,2013-01-25,2013-01-25
CDISCPILOT01,SV,01-703-1096,3.5,AMBUL ECG PLACEMENT,13.0,2013-02-08,2013-02-08
CDISCPILOT01,SV,01-703-1096,4.0,WEEK 2,14.0,2013-02-09,2013-02-09
CDISCPILOT01,SV,01-703-1096,5.0,WEEK 4,28.0,2013-02-23,2013-02-23
CDISCPILOT01,SV,01-703-1096,6.0,AMBUL ECG REMOVAL,30.0,2013-02-27,2013-02-27
CDISCPILOT01,SV,01-703-1096,7.0,WEEK 6,42.0,2013-03-29,2013-03-29
CDISCPILOT01,SV,01-703-1100,1.0,SCREENING 1,-7.0,2013-02-28,2013-02-28
CDISCPILOT01,SV,01-703-1100,1.1,UNSCHEDULED 1.1,,2012-12-27,2012-12-27
CDISCPILOT01,SV,01-703-1100,1.2,UNSCHEDULED 1.2,,2013-02-28,2013-02-28
CDISCPILOT01,SV,01-703-1100,2.0,SCREENING 2,-1.0,2013-03-11,2013-03-11
CDISCPILOT01,SV,01-703-1100,3.0,BASELINE,1.0,2013-03-13,2013-03-13
CDISCPILOT01,SV,01-703-1100,3.5,AMBUL ECG PLACEMENT,13.0,2013-03-28,2013-03-28
CDISCPILOT01,SV,01-703-1100,4.0,WEEK 2,14.0,2013-03-29,2013-03-29
CDISCPILOT01,SV,01-703-1100,5.0,WEEK 4,28.0,2013-04-12,2013-04-12
CDISCPILOT01,SV,01-703-1100,6.0,AMBUL ECG REMOVAL,30.0,2013-04-14,2013-04-14
CDISCPILOT01,SV,01-703-1100,7.0,WEEK 6,42.0,2013-04-24,2013-04-24
CDISCPILOT01,SV,01-703-1100,8.0,WEEK 8,56.0,2013-05-08,2013-05-08
CDISCPILOT01,SV,01-703-1100,8.1,WEEK 10 (T),70.0,2013-05-22,2013-05-22
CDISCPILOT01,SV,01-703-1100,9.0,WEEK 12,84.0,2013-06-05,2013-06-05
CDISCPILOT01,SV,01-703-1100,9.1,WEEK 14 (T),98.0,2013-06-19,2013-06-19
CDISCPILOT01,SV,01-703-1100,10.0,WEEK 16,112.0,2013-07-03,2013-07-03
CDISCPILOT01,SV,01-703-1100,10.1,WEEK 18 (T),126.0,2013-07-19,2013-07-19
CDISCPILOT01,SV,01-703-1100,11.0,WEEK 20,140.0,2013-07-31,2013-07-31
CDISCPILOT01,SV,01-703-1100,11.1,WEEK 22 (T),154.0,2013-08-09,2013-08-09
CDISCPILOT01,SV,01-703-1100,12.0,WEEK 24,168.0,2013-08-28,2013-08-28
CDISCPILOT01,SV,01-703-1100,13.0,WEEK 26,182.0,2013-09-14,2013-09-14
CDISCPILOT01,SV,01-703-1119,1.0,SCREENING 1,-7.0,2013-02-02,2013-02-02
CDISCPILOT01,SV,01-703-1119,1.1,UNSCHEDULED 1.1,,2013-02-13,2013-02-13
CDISCPILOT01,SV,01-703-1119,1.2,UNSCHEDULED 1.2,,2013-02-16,2013-02-16
CDISCPILOT01,SV,01-703-1119,1.3,UNSCHEDULED 1.3,,2013-02-14,2013-02-14
CDISCPILOT01,SV,01-703-1119,2.0,SCREENING 2,-1.0,2013-02-14,2013-02-14
CDISCPILOT01,SV,01-703-1119,3.0,BASELINE,1.0,2013-02-20,2013-02-20
CDISCPILOT01,SV,01-703-1119,3.5,AMBUL ECG PLACEMENT,13.0,2013-03-09,2013-03-09
CDISCPILOT01,SV,01-703-1119,4.0,WEEK 2,14.0,2013-03-10,2013-03-10
CDISCPILOT01,SV,01-703-1119,5.0,WEEK 4,28.0,2013-03-21,2013-03-21
CDISCPILOT01,SV,01-703-1119,6.0,AMBUL ECG REMOVAL,30.0,2013-03-23,2013-03-23
CDISCPILOT01,SV,01-703-1119,7.0,WEEK 6,42.0,2013-04-04,2013-04-04
CDISCPILOT01,SV,01-703-1119,8.0,WEEK 8,56.0,2013-04-19,2013-04-19
CDISCPILOT01,SV,01-703-1119,8.1,WEEK 10 (T),70.0,2013-05-03,2013-05-03
CDISCPILOT01,SV,01-703-1119,9.0,WEEK 12,84.0,2013-05-17,2013-05-17
CDISCPILOT01,SV,01-703-1119,9.1,WEEK 14 (T),98.0,2013-05-31,2013-05-31
CDISCPILOT01,SV,01-703-1119,10.0,WEEK 16,112.0,2013-06-13,2013-06-13
CDISCPILOT01,SV,01-703-1119,101.0,AE FOLLOW-UP,,2013-07-20,2013-07-20
CDISCPILOT01,SV,01-703-1119,201.0,RETRIEVAL,168.0,2013-08-24,2013-08-24
CDISCPILOT01,SV,01-703-1175,1.0,SCREENING 1,-7.0,2013-12-13,2013-12-13
CDISCPILOT01,SV,01-703-1175,2.0,SCREENING 2,-1.0,2013-12-18,2013-12-18
CDISCPILOT01,SV,01-703-1175,3.0,BASELINE,1.0,2013-12-20,2013-12-20
CDISCPILOT01,SV,01-703-1175,4.0,WEEK 2,14.0,2013-12-31,2013-12-31
CDISCPILOT01,SV,01-703-1175,101.0,AE FOLLOW-UP,,2013-12-31,2013-12-31
CDISCPILOT01,SV,01-703-1182,1.0,SCREENING 1,-7.0,2013-10-08,2013-10-08
CDISCPILOT01,SV,01-703-1182,2.0,SCREENING 2,-1.0,2013-10-15,2013-10-15
CDISCPILOT01,SV,01-703-1182,3.0,BASELINE,1.0,2013-10-17,2013-10-17
CDISCPILOT01,SV,01-703-1182,3.5,AMBUL ECG PLACEMENT,13.0,2013-10-30,2013-10-30
CDISCPILOT01,SV,01-703-1182,4.0,WEEK 2,14.0,2013-10-31,2013-10-31
CDISCPILOT01,SV,01-703-1182,5.0,WEEK 4,28.0,2013-11-19,2013-11-19
CDISCPILOT01,SV,01-703-1182,6.0,AMBUL ECG REMOVAL,30.0,2013-11-20,2013-11-20
CDISCPILOT01,SV,01-703-1182,7.0,WEEK 6,42.0,2013-11-28,2013-11-28
CDISCPILOT01,SV,01-703-1182,8.0,WEEK 8,56.0,2013-12-12,2013-12-12
CDISCPILOT01,SV,01-703-1182,101.0,AE FOLLOW-UP,,2014-01-14,2014-01-14
CDISCPILOT01,SV,01-703-1197,1.0,SCREENING 1,-7.0,2013-06-01,2013-06-01
CDISCPILOT01,SV,01-703-1197,1.1,UNSCHEDULED 1.1,,2013-06-01,2013-06-01
CDISCPILOT01,SV,01-703-1197,2.0,SCREENING 2,-1.0,2013-06-14,2013-06-14
CDISCPILOT01,SV,01-703-1197,3.0,BASELINE,1.0,2013-06-16,2013-06-16
CDISCPILOT01,SV,01-703-1197,4.0,WEEK 2,14.0,2013-07-22,2013-07-22
CDISCPILOT01,SV,01-703-1210,1.0,SCREENING 1,-7.0,2013-03-08,2013-03-08
CDISCPILOT01,SV,01-703-1210,2.0,SCREENING 2,-1.0,2013-03-14,2013-03-14
CDISCPILOT01,SV,01-703-1210,3.0,BASELINE,1.0,2013-03-16,2013-03-16
CDISCPILOT01,SV,01-703-1210,3.5,AMBUL ECG PLACEMENT,13.0,2013-03-29,2013-03-29
CDISCPILOT01,SV,01-703-1210,4.0,WEEK 2,14.0,2013-03-30,2013-03-30
CDISCPILOT01,SV,01-703-1210,5.0,WEEK 4,28.0,2013-04-12,2013-04-12
CDISCPILOT01,SV,01-703-1210,6.0,AMBUL ECG REMOVAL,30.0,2013-04-14,2013-04-14
CDISCPILOT01,SV,01-703-1210,7.0,WEEK 6,42.0,2013-04-28,2013-04-28
CDISCPILOT01,SV,01-703-1210,8.0,WEEK 8,56.0,2013-05-10,2013-05-10
CDISCPILOT01,SV,01-703-1210,8.1,WEEK 10 (T),70.0,2013-05-24,2013-05-24
CDISCPILOT01,SV,01-703-1210,9.0,WEEK 12,84.0,2013-06-07,2013-06-07
CDISCPILOT01,SV,01-703-1210,9.1,WEEK 14 (T),98.0,2013-06-21,2013-06-21
CDISCPILOT01,SV,01-703-1210,10.0,WEEK 16,112.0,2013-07-05,2013-07-05
CDISCPILOT01,SV,01-703-1210,10.1,WEEK 18 (T),126.0,2013-07-19,2013-07-19
CDISCPILOT01,SV,01-703-1210,11.0,WEEK 20,140.0,2013-07-27,2013-07-27
CDISCPILOT01,SV,01-703-1210,11.1,WEEK 22 (T),154.0,2013-08-09,2013-08-09
CDISCPILOT01,SV,01-703-1210,12.0,WEEK 24,168.0,2013-08-24,2013-08-24
CDISCPILOT01,SV,01-703-1210,13.0,WEEK 26,182.0,2013-09-06,2013-09-06
CDISCPILOT01,SV,01-703-1258,1.0,SCREENING 1,-7.0,2012-07-10,2012-07-10
CDISCPILOT01,SV,01-703-1258,2.0,SCREENING 2,-1.0,2012-07-18,2012-07-18
CDISCPILOT01,SV,01-703-1258,3.0,BASELINE,1.0,2012-07-20,2012-07-20
CDISCPILOT01,SV,01-703-1258,3.5,AMBUL ECG PLACEMENT,13.0,2012-07-31,2012-07-31
CDISCPILOT01,SV,01-703-1258,4.0,WEEK 2,14.0,2012-08-01,2012-08-01
CDISCPILOT01,SV,01-703-1258,5.0,WEEK 4,28.0,2012-08-17,2012-08-17
CDISCPILOT01,SV,01-703-1258,6.0,AMBUL ECG REMOVAL,30.0,2012-08-19,2012-08-19
CDISCPILOT01,SV,01-703-1258,7.0,WEEK 6,42.0,2012-09-04,2012-09-04
CDISCPILOT01,SV,01-703-1258,8.0,WEEK 8,56.0,2012-09-14,2012-09-14
CDISCPILOT01,SV,01-703-1258,8.1,WEEK 10 (T),70.0,2012-09-28,2012-09-28
CDISCPILOT01,SV,01-703-1258,9.0,WEEK 12,84.0,2012-10-09,2012-10-09
CDISCPILOT01,SV,01-703-1258,9.1,WEEK 14 (T),98.0,2012-10-23,2012-10-23
CDISCPILOT01,SV,01-703-1258,10.0,WEEK 16,112.0,2012-11-05,2012-11-05
CDISCPILOT01,SV,01-703-1258,10.1,WEEK 18 (T),126.0,2012-11-19,2012-11-19
CDISCPILOT01,SV,01-703-1258,11.0,WEEK 20,140.0,2012-12-03,2012-12-03
CDISCPILOT01,SV,01-703-1258,11.1,WEEK 22 (T),154.0,2012-12-20,2012-12-20
CDISCPILOT01,SV,01-703-1258,12.0,WEEK 24,168.0,2012-12-31,2012-12-31
CDISCPILOT01,SV,01-703-1258,13.0,WEEK 26,182.0,2013-01-21,2013-01-21
CDISCPILOT01,SV,01-703-1258,101.0,AE FOLLOW-UP,,2013-01-28,2013-01-28
CDISCPILOT01,SV,01-703-1279,1.0,SCREENING 1,-7.0,2013-04-27,2013-04-27
CDISCPILOT01,SV,01-703-1279,2.0,SCREENING 2,-1.0,2013-05-11,2013-05-11
CDISCPILOT01,SV,01-703-1279,3.0,BASELINE,1.0,2013-05-13,2013-05-13
CDISCPILOT01,SV,01-703-1279,4.0,WEEK 2,14.0,2013-06-22,2013-06-22
CDISCPILOT01,SV,01-703-1295,1.0,SCREENING 1,-7.0,2013-10-24,2013-10-24
CDISCPILOT01,SV,01-703-1295,1.1,UNSCHEDULED 1.1,,2013-11-04,2013-11-04
CDISCPILOT01,SV,01-703-1295,2.0,SCREENING 2,-1.0,2013-11-19,2013-11-19
CDISCPILOT01,SV,01-703-1295,3.0,BASELINE,1.0,2013-11-21,2013-11-21
CDISCPILOT01,SV,01-703-1295,3.5,AMBUL ECG PLACEMENT,13.0,2013-12-04,2013-12-04
CDISCPILOT01,SV,01-703-1295,4.0,WEEK 2,14.0,2013-12-05,2013-12-05
CDISCPILOT01,SV,01-703-1295,5.0,WEEK 4,28.0,2013-12-18,2013-12-18
CDISCPILOT01,SV,01-703-1295,6.0,AMBUL ECG REMOVAL,30.0,2013-12-20,2013-12-20
CDISCPILOT01,SV,01-703-1295,7.0,WEEK 6,42.0,2014-01-01,2014-01-01
CDISCPILOT01,SV,01-703-1295,8.0,WEEK 8,56.0,2014-01-15,2014-01-15
CDISCPILOT01,SV,01-703-1295,8.1,WEEK 10 (T),70.0,2014-01-29,2014-01-29
CDISCPILOT01,SV,01-703-1295,9.0,WEEK 12,84.0,2014-02-18,2014-02-18
CDISCPILOT01,SV,01-703-1295,9.1,WEEK 14 (T),98.0,2014-03-04,2014-03-04
CDISCPILOT01,SV,01-703-1295,10.0,WEEK 16,112.0,2014-03-13,2014-03-13
CDISCPILOT01,SV,01-703-1295,11.0,WEEK 20,140.0,2014-05-19,2014-05-19
CDISCPILOT01,SV,01-703-1299,1.0,SCREENING 1,-7.0,2012-09-07,2012-09-07
CDISCPILOT01,SV,01-703-1299,2.0,SCREENING 2,-1.0,2012-09-10,2012-09-10
CDISCPILOT01,SV,01-703-1299,3.0,BASELINE,1.0,2012-09-12,2012-09-12
CDISCPILOT01,SV,01-703-1299,3.5,AMBUL ECG PLACEMENT,13.0,2012-09-27,2012-09-27
CDISCPILOT01,SV,01-703-1299,4.0,WEEK 2,14.0,2012-09-28,2012-09-28
CDISCPILOT01,SV,01-703-1299,5.0,WEEK 4,28.0,2012-10-10,2012-10-10
CDISCPILOT01,SV,01-703-1299,6.0,AMBUL ECG REMOVAL,30.0,2012-10-12,2012-10-12
CDISCPILOT01,SV,01-703-1299,7.0,WEEK 6,42.0,2012-10-24,2012-10-24
CDISCPILOT01,SV,01-703-1299,8.0,WEEK 8,56.0,2012-11-07,2012-11-07
CDISCPILOT01,SV,01-703-1299,8.1,WEEK 10 (T),70.0,2012-11-21,2012-11-21
CDISCPILOT01,SV,01-703-1299,9.0,WEEK 12,84.0,2012-12-05,2012-12-05
CDISCPILOT01,SV,01-703-1299,9.1,WEEK 14 (T),98.0,2012-12-19,2012-12-19
CDISCPILOT01,SV,01-703-1299,10.0,WEEK 16,112.0,2013-01-02,2013-01-02
CDISCPILOT01,SV,01-703-1299,10.1,WEEK 18 (T),126.0,2013-01-16,2013-01-16
CDISCPILOT01,SV,01-703-1299,11.0,WEEK 20,140.0,2013-01-30,2013-01-30
CDISCPILOT01,SV,01-703-1299,11.1,WEEK 22 (T),154.0,2013-02-13,2013-02-13
CDISCPILOT01,SV,01-703-1299,12.0,WEEK 24,168.0,2013-03-01,2013-03-01
CDISCPILOT01,SV,01-703-1299,13.0,WEEK 26,182.0,2013-03-13,2013-03-13
CDISCPILOT01,SV,01-703-1299,13.1,UNSCHEDULED 13.1,,2013-03-27,2013-03-27
CDISCPILOT01,SV,01-703-1335,1.0,SCREENING 1,-7.0,2014-02-28,2014-02-28
CDISCPILOT01,SV,01-703-1335,1.1,UNSCHEDULED 1.1,,2014-02-21,2014-02-21
CDISCPILOT01,SV,01-703-1335,2.0,SCREENING 2,-1.0,2014-03-15,2014-03-15
CDISCPILOT01,SV,01-703-1335,3.0,BASELINE,1.0,2014-03-17,2014-03-17
CDISCPILOT01,SV,01-703-1335,3.5,AMBUL ECG PLACEMENT,13.0,2014-03-30,2014-03-30
CDISCPILOT01,SV,01-703-1335,4.0,WEEK 2,14.0,2014-03-31,2014-03-31
CDISCPILOT01,SV,01-703-1335,5.0,WEEK 4,28.0,2014-04-13,2014-04-13
CDISCPILOT01,SV,01-703-1335,6.0,AMBUL ECG REMOVAL,30.0,2014-04-15,2014-04-15
CDISCPILOT01,SV,01-703-1335,7.0,WEEK 6,42.0,2014-05-24,2014-05-24
CDISCPILOT01,SV,01-703-1379,1.0,SCREENING 1,-7.0,2013-09-12,2013-09-12
CDISCPILOT01,SV,01-703-1379,2.0,SCREENING 2,-1.0,2013-09-20,2013-09-20
CDISCPILOT01,SV,01-703-1379,3.0,BASELINE,1.0,2013-09-22,2013-09-22
CDISCPILOT01,SV,01-703-1379,3.5,AMBUL ECG PLACEMENT,13.0,2013-10-06,2013-10-06
CDISCPILOT01,SV,01-703-1379,4.0,WEEK 2,14.0,2013-10-07,2013-10-07
CDISCPILOT01,SV,01-703-1379,5.0,WEEK 4,28.0,2013-10-19,2013-10-19
CDISCPILOT01,SV,01-703-1379,6.0,AMBUL ECG REMOVAL,30.0,2013-10-21,2013-10-21
CDISCPILOT01,SV,01-703-1379,7.0,WEEK 6,42.0,2013-11-08,2013-11-08
CDISCPILOT01,SV,01-703-1379,8.0,WEEK 8,56.0,2013-11-17,2013-11-17
CDISCPILOT01,SV,01-703-1379,8.1,WEEK 10 (T),70.0,2013-12-01,2013-12-01
CDISCPILOT01,SV,01-703-1379,9.0,WEEK 12,84.0,2013-12-15,2013-12-15
CDISCPILOT01,SV,01-703-1379,9.1,WEEK 14 (T),98.0,2013-12-29,2013-12-29
CDISCPILOT01,SV,01-703-1379,10.0,WEEK 16,112.0,2014-01-11,2014-01-11
CDISCPILOT01,SV,01-703-1379,10.1,WEEK 18 (T),126.0,2014-01-25,2014-01-25
CDISCPILOT01,SV,01-703-1379,11.0,WEEK 20,140.0,2014-02-09,2014-02-09
CDISCPILOT01,SV,01-703-1379,11.1,WEEK 22 (T),154.0,2014-02-23,2014-02-23
CDISCPILOT01,SV,01-703-1379,11.2,UNSCHEDULED 11.2,,2014-02-23,2014-02-23
CDISCPILOT01,SV,01-703-1379,12.0,WEEK 24,168.0,2014-03-08,2014-03-08
CDISCPILOT01,SV,01-703-1379,13.0,WEEK 26,182.0,2014-03-21,2014-03-21
CDISCPILOT01,SV,01-703-1396,1.0,SCREENING 1,-7.0,2014-02-09,2014-02-09
CDISCPILOT01,SV,01-703-1403,1.0,SCREENING 1,-7.0,2012-12-05,2012-12-05
CDISCPILOT01,SV,01-703-1403,2.0,SCREENING 2,-1.0,2012-12-10,2012-12-10
CDISCPILOT01,SV,01-703-1403,3.0,BASELINE,1.0,2012-12-12,2012-12-12
CDISCPILOT01,SV,01-703-1403,4.0,WEEK 2,14.0,2012-12-19,2012-12-19
CDISCPILOT01,SV,01-703-1403,101.0,AE FOLLOW-UP,,2013-01-08,2013-01-08
CDISCPILOT01,SV,01-703-1439,1.0,SCREENING 1,-7.0,2014-03-04,2014-03-04
CDISCPILOT01,SV,01-703-1439,2.0,SCREENING 2,-1.0,2014-03-10,2014-03-10
CDISCPILOT01,SV,01-703-1439,3.0,BASELINE,1.0,2014-03-12,2014-03-12
CDISCPILOT01,SV,01-703-1439,3.5,AMBUL ECG PLACEMENT,13.0,2014-03-25,2014-03-25
CDISCPILOT01,SV,01-703-1439,4.0,WEEK 2,14.0,2014-03-26,2014-03-26
CDISCPILOT01,SV,01-703-1439,5.0,WEEK 4,28.0,2014-04-08,2014-04-08
CDISCPILOT01,SV,01-703-1439,6.0,AMBUL ECG REMOVAL,30.0,2014-04-10,2014-04-10
CDISCPILOT01,SV,01-703-1439,7.0,WEEK 6,42.0,2014-04-21,2014-04-21
CDISCPILOT01,SV,01-703-1439,8.0,WEEK 8,56.0,2014-05-05,2014-05-05
CDISCPILOT01,SV,01-703-1439,8.1,WEEK 10 (T),70.0,2014-05-19,2014-05-19
CDISCPILOT01,SV,01-703-1439,9.0,WEEK 12,84.0,2014-06-02,2014-06-02
CDISCPILOT01,SV,01-703-1439,9.1,WEEK 14 (T),98.0,2014-06-16,2014-06-16
CDISCPILOT01,SV,01-703-1439,10.0,WEEK 16,112.0,2014-06-30,2014-06-30
CDISCPILOT01,SV,01-703-1439,10.1,WEEK 18 (T),126.0,2014-07-16,2014-07-16
CDISCPILOT01,SV,01-703-1439,11.0,WEEK 20,140.0,2014-07-29,2014-07-29
CDISCPILOT01,SV,01-703-1439,11.1,WEEK 22 (T),154.0,2014-08-06,2014-08-06
CDISCPILOT01,SV,01-703-1439,12.0,WEEK 24,168.0,2014-08-28,2014-08-28
CDISCPILOT01,SV,01-703-1439,13.0,WEEK 26,182.0,2014-09-11,2014-09-11
CDISCPILOT01,SV,01-704-1008,1.0,SCREENING 1,-7.0,2013-01-06,2013-01-06
CDISCPILOT01,SV,01-704-1008,1.1,UNSCHEDULED 1.1,,2013-01-06,2013-01-06
CDISCPILOT01,SV,01-704-1008,2.0,SCREENING 2,-1.0,2013-01-11,2013-01-11
CDISCPILOT01,SV,01-704-1008,3.0,BASELINE,1.0,2013-01-13,2013-01-13
CDISCPILOT01,SV,01-704-1008,3.5,AMBUL ECG PLACEMENT,13.0,2013-01-27,2013-01-27
CDISCPILOT01,SV,01-704-1008,4.0,WEEK 2,14.0,2013-01-28,2013-01-28
CDISCPILOT01,SV,01-704-1008,5.0,WEEK 4,28.0,2013-02-09,2013-02-09
CDISCPILOT01,SV,01-704-1008,6.0,AMBUL ECG REMOVAL,30.0,2013-02-11,2013-02-11
CDISCPILOT01,SV,01-704-1008,7.0,WEEK 6,42.0,2013-02-25,2013-02-25
CDISCPILOT01,SV,01-704-1009,1.0,SCREENING 1,-7.0,2013-08-20,2013-08-20
CDISCPILOT01,SV,01-704-1009,2.0,SCREENING 2,-1.0,2013-08-24,2013-08-24
CDISCPILOT01,SV,01-704-1009,3.0,BASELINE,1.0,2013-08-27,2013-08-27
CDISCPILOT01,SV,01-704-1009,3.5,AMBUL ECG PLACEMENT,13.0,2013-09-13,2013-09-13
CDISCPILOT01,SV,01-704-1009,4.0,WEEK 2,14.0,2013-09-14,2013-09-14
CDISCPILOT01,SV,01-704-1009,5.0,WEEK 4,28.0,2013-10-02,2013-10-02
CDISCPILOT01,SV,01-704-1010,1.0,SCREENING 1,-7.0,2014-02-08,2014-02-08
CDISCPILOT01,SV,01-704-1010,2.0,SCREENING 2,-1.0,2014-02-19,2014-02-19
CDISCPILOT01,SV,01-704-1010,3.0,BASELINE,1.0,2014-02-21,2014-02-21
CDISCPILOT01,SV,01-704-1010,3.5,AMBUL ECG PLACEMENT,13.0,2014-03-07,2014-03-07
CDISCPILOT01,SV,01-704-1010,4.0,WEEK 2,14.0,2014-03-08,2014-03-08
CDISCPILOT01,SV,01-704-1010,5.0,WEEK 4,28.0,2014-03-23,2014-03-23
CDISCPILOT01,SV,01-704-1010,6.0,AMBUL ECG REMOVAL,30.0,2014-03-26,2014-03-26
CDISCPILOT01,SV,01-704-1010,7.0,WEEK 6,42.0,2014-04-11,2014-04-11
CDISCPILOT01,SV,01-704-1010,8.0,WEEK 8,56.0,2014-04-24,2014-04-24
CDISCPILOT01,SV,01-704-1010,8.1,WEEK 10 (T),70.0,2014-05-08,2014-05-08
CDISCPILOT01,SV,01-704-1010,9.0,WEEK 12,84.0,2014-05-16,2014-05-16
CDISCPILOT01,SV,01-704-1010,9.1,WEEK 14 (T),98.0,2014-05-30,2014-05-30
CDISCPILOT01,SV,01-704-1010,9.2,UNSCHEDULED 9.2,,2014-05-30,2014-05-30
CDISCPILOT01,SV,01-704-1010,10.0,WEEK 16,112.0,2014-06-13,2014-06-13
CDISCPILOT01,SV,01-704-1010,10.1,WEEK 18 (T),126.0,2014-06-27,2014-06-27
CDISCPILOT01,SV,01-704-1010,11.0,WEEK 20,140.0,2014-07-09,2014-07-09
CDISCPILOT01,SV,01-704-1017,1.0,SCREENING 1,-7.0,2013-09-20,2013-09-20
CDISCPILOT01,SV,01-704-1017,2.0,SCREENING 2,-1.0,2013-09-27,2013-09-27
CDISCPILOT01,SV,01-704-1017,3.0,BASELINE,1.0,2013-10-06,2013-10-06
CDISCPILOT01,SV,01-704-1017,3.5,AMBUL ECG PLACEMENT,13.0,2013-10-18,2013-10-18
CDISCPILOT01,SV,01-704-1017,4.0,WEEK 2,14.0,2013-10-19,2013-10-19
CDISCPILOT01,SV,01-704-1017,5.0,WEEK 4,28.0,2013-11-09,2013-11-09
CDISCPILOT01,SV,01-704-1017,6.0,AMBUL ECG REMOVAL,30.0,2013-11-11,2013-11-11
CDISCPILOT01,SV,01-704-1017,7.0,WEEK 6,42.0,2013-11-24,2013-11-24
CDISCPILOT01,SV,01-704-1017,101.0,AE FOLLOW-UP,,2013-12-06,2013-12-06
CDISCPILOT01,SV,01-704-1025,1.0,SCREENING 1,-7.0,2013-09-18,2013-09-18
CDISCPILOT01,SV,01-704-1025,2.0,SCREENING 2,-1.0,2013-09-25,2013-09-25
CDISCPILOT01,SV,01-704-1025,3.0,BASELINE,1.0,2013-09-27,2013-09-27
CDISCPILOT01,SV,01-704-1025,3.5,AMBUL ECG PLACEMENT,13.0,2013-10-10,2013-10-10
CDISCPILOT01,SV,01-704-1025,4.0,WEEK 2,14.0,2013-10-11,2013-10-11
CDISCPILOT01,SV,01-704-1025,5.0,WEEK 4,28.0,2013-10-25,2013-10-25
CDISCPILOT01,SV,01-704-1025,5.1,UNSCHEDULED 5.1,,2013-10-28,2013-10-28
CDISCPILOT01,SV,01-704-1025,6.0,AMBUL ECG REMOVAL,30.0,2013-11-29,2013-11-29
CDISCPILOT01,SV,01-704-1065,1.0,SCREENING 1,-7.0,2013-10-17,2013-10-17
CDISCPILOT01,SV,01-704-1065,2.0,SCREENING 2,-1.0,2013-10-22,2013-10-22
CDISCPILOT01,SV,01-704-1065,3.0,BASELINE,1.0,2013-10-24,2013-10-24
CDISCPILOT01,SV,01-704-1065,3.5,AMBUL ECG PLACEMENT,13.0,2013-11-06,2013-11-06
CDISCPILOT01,SV,01-704-1065,4.0,WEEK 2,14.0,2013-11-07,2013-11-07
CDISCPILOT01,SV,01-704-1065,5.0,WEEK 4,28.0,2013-11-25,2013-11-25
CDISCPILOT01,SV,01-704-1065,6.0,AMBUL ECG REMOVAL,30.0,2013-11-27,2013-11-27
CDISCPILOT01,SV,01-704-1065,7.0,WEEK 6,42.0,2013-12-06,2013-12-06
CDISCPILOT01,SV,01-704-1065,8.0,WEEK 8,56.0,2013-12-20,2013-12-20
CDISCPILOT01,SV,01-704-1065,9.0,WEEK 12,84.0,2013-12-24,2013-12-24
CDISCPILOT01,SV,01-704-1065,101.0,AE FOLLOW-UP,,2014-02-17,2014-02-17
CDISCPILOT01,SV,01-704-1074,1.0,SCREENING 1,-7.0,2014-01-19,2014-01-19
CDISCPILOT01,SV,01-704-1074,2.0,SCREENING 2,-1.0,2014-01-20,2014-01-20
CDISCPILOT01,SV,01-704-1074,3.0,BASELINE,1.0,2014-01-22,2014-01-22
CDISCPILOT01,SV,01-704-1074,3.5,AMBUL ECG PLACEMENT,13.0,2014-02-08,2014-02-08
CDISCPILOT01,SV,01-704-1074,4.0,WEEK 2,14.0,2014-02-09,2014-02-09
CDISCPILOT01,SV,01-704-1074,5.0,WEEK 4,28.0,2014-02-22,2014-02-22
CDISCPILOT01,SV,01-704-1074,6.0,AMBUL ECG REMOVAL,30.0,2014-02-24,2014-02-24
CDISCPILOT01,SV,01-704-1074,7.0,WEEK 6,42.0,2014-03-09,2014-03-09
CDISCPILOT01,SV,01-704-1074,8.0,WEEK 8,56.0,2014-03-31,2014-03-31
CDISCPILOT01,SV,01-704-1093,1.0,SCREENING 1,-7.0,2013-02-22,2013-02-22
CDISCPILOT01,SV,01-704-1093,1.1,UNSCHEDULED 1.1,,2013-02-22,2013-02-22
CDISCPILOT01,SV,01-704-1093,1.2,UNSCHEDULED 1.2,,2013-03-02,2013-03-02
CDISCPILOT01,SV,01-704-1093,2.0,SCREENING 2,-1.0,2013-03-13,2013-03-13
CDISCPILOT01,SV,01-704-1093,3.0,BASELINE,1.0,2013-03-15,2013-03-15
CDISCPILOT01,SV,01-704-1093,3.5,AMBUL ECG PLACEMENT,13.0,2013-03-29,2013-03-29
CDISCPILOT01,SV,01-704-1093,4.0,WEEK 2,14.0,2013-03-30,2013-03-30
CDISCPILOT01,SV,01-704-1093,5.0,WEEK 4,28.0,2013-04-12,2013-04-12
CDISCPILOT01,SV,01-704-1093,6.0,AMBUL ECG REMOVAL,30.0,2013-04-17,2013-04-17
CDISCPILOT01,SV,01-704-1093,7.0,WEEK 6,42.0,2013-04-25,2013-04-25
CDISCPILOT01,SV,01-704-1093,8.0,WEEK 8,56.0,2013-05-11,2013-05-11
CDISCPILOT01,SV,01-704-1093,8.1,WEEK 10 (T),70.0,2013-05-23,2013-05-23
CDISCPILOT01,SV,01-704-1093,9.0,WEEK 12,84.0,2013-06-07,2013-06-07
CDISCPILOT01,SV,01-704-1093,10.0,WEEK 16,112.0,2013-06-20,2013-06-20
CDISCPILOT01,SV,01-704-1093,101.0,AE FOLLOW-UP,,2013-07-26,2013-07-26
CDISCPILOT01,SV,01-704-1093,201.0,RETRIEVAL,168.0,2013-12-25,2013-12-25
CDISCPILOT01,SV,01-704-1114,1.0,SCREENING 1,-7.0,2013-01-09,2013-01-09
CDISCPILOT01,SV,01-704-1114,2.0,SCREENING 2,-1.0,2013-01-21,2013-01-21
CDISCPILOT01,SV,01-704-1114,3.0,BASELINE,1.0,2013-01-23,2013-01-23
CDISCPILOT01,SV,01-704-1114,3.5,AMBUL ECG PLACEMENT,13.0,2013-02-02,2013-02-02
CDISCPILOT01,SV,01-704-1114,4.0,WEEK 2,14.0,2013-02-03,2013-02-03
CDISCPILOT01,SV,01-704-1114,5.0,WEEK 4,28.0,2013-02-18,2013-02-18
CDISCPILOT01,SV,01-704-1114,6.0,AMBUL ECG REMOVAL,30.0,2013-02-20,2013-02-20
CDISCPILOT01,SV,01-704-1114,7.0,WEEK 6,42.0,2013-03-13,2013-03-13
CDISCPILOT01,SV,01-704-1114,8.0,WEEK 8,56.0,2013-03-26,2013-03-26
CDISCPILOT01,SV,01-704-1114,8.1,WEEK 10 (T),70.0,2013-04-03,2013-04-03
CDISCPILOT01,SV,01-704-1114,9.0,WEEK 12,84.0,2013-04-17,2013-04-17
CDISCPILOT01,SV,01-704-1114,9.1,WEEK 14 (T),98.0,2013-04-29,2013-04-29
CDISCPILOT01,SV,01-704-1114,10.0,WEEK 16,112.0,2013-05-14,2013-05-14
CDISCPILOT01,SV,01-704-1114,10.1,WEEK 18 (T),126.0,2013-05-28,2013-05-28
CDISCPILOT01,SV,01-704-1114,11.0,WEEK 20,140.0,2013-06-16,2013-06-16
CDISCPILOT01,SV,01-704-1114,12.0,WEEK 24,168.0,2013-07-08,2013-07-08
CDISCPILOT01,SV,01-704-1120,1.0,SCREENING 1,-7.0,2013-11-18,2013-11-18
CDISCPILOT01,SV,01-704-1120,2.0,SCREENING 2,-1.0,2013-11-30,2013-11-30
CDISCPILOT01,SV,01-704-1120,3.0,BASELINE,1.0,2013-12-02,2013-12-02
CDISCPILOT01,SV,01-704-1120,3.5,AMBUL ECG PLACEMENT,13.0,2013-12-14,2013-12-14
CDISCPILOT01,SV,01-704-1120,4.0,WEEK 2,14.0,2013-12-15,2013-12-15
CDISCPILOT01,SV,01-704-1120,5.0,WEEK 4,28.0,2013-12-29,2013-12-29
CDISCPILOT01,SV,01-704-1120,6.0,AMBUL ECG REMOVAL,30.0,2013-12-31,2013-12-31
CDISCPILOT01,SV,01-704-1120,7.0,WEEK 6,42.0,2014-01-13,2014-01-13
CDISCPILOT01,SV,01-704-1120,8.0,WEEK 8,56.0,2014-01-27,2014-01-27
CDISCPILOT01,SV,01-704-1120,9.0,WEEK 12,84.0,2014-02-03,2014-02-03
CDISCPILOT01,SV,01-704-1120,101.0,AE FOLLOW-UP,,2014-03-10,2014-03-10
CDISCPILOT01,SV,01-704-1127,1.0,SCREENING 1,-7.0,2013-09-16,2013-09-16
CDISCPILOT01,SV,01-704-1127,2.0,SCREENING 2,-1.0,2013-09-30,2013-09-30
CDISCPILOT01,SV,01-704-1127,3.0,BASELINE,1.0,2013-10-02,2013-10-02
CDISCPILOT01,SV,01-704-1127,3.5,AMBUL ECG PLACEMENT,13.0,2013-10-15,2013-10-15
CDISCPILOT01,SV,01-704-1127,4.0,WEEK 2,14.0,2013-10-16,2013-10-16
CDISCPILOT01,SV,01-704-1127,5.0,WEEK 4,28.0,2013-10-30,2013-10-30
CDISCPILOT01,SV,01-704-1127,6.0,AMBUL ECG REMOVAL,30.0,2013-11-03,2013-11-03
CDISCPILOT01,SV,01-704-1127,7.0,WEEK 6,42.0,2013-11-13,2013-11-13
CDISCPILOT01,SV,01-704-1127,8.0,WEEK 8,56.0,2013-11-26,2013-11-26
CDISCPILOT01,SV,01-704-1127,8.1,WEEK 10 (T),70.0,2013-12-10,2013-12-10
CDISCPILOT01,SV,01-704-1127,9.0,WEEK 12,84.0,2013-12-25,2013-12-25
CDISCPILOT01,SV,01-704-1127,9.1,WEEK 14 (T),98.0,2014-01-08,2014-01-08
CDISCPILOT01,SV,01-704-1127,10.0,WEEK 16,112.0,2014-01-21,2014-01-21
CDISCPILOT01,SV,01-704-1127,10.1,WEEK 18 (T),126.0,2014-02-05,2014-02-05
CDISCPILOT01,SV,01-704-1127,11.0,WEEK 20,140.0,2014-02-17,2014-02-17
CDISCPILOT01,SV,01-704-1127,11.1,WEEK 22 (T),154.0,2014-03-05,2014-03-05
CDISCPILOT01,SV,01-704-1127,12.0,WEEK 24,168.0,2014-03-17,2014-03-17
CDISCPILOT01,SV,01-704-1127,13.0,WEEK 26,182.0,2014-03-31,2014-03-31
CDISCPILOT01,SV,01-704-1135,1.0,SCREENING 1,-7.0,2013-10-23,2013-10-23
CDISCPILOT01,SV,01-704-1135,2.0,SCREENING 2,-1.0,2013-10-29,2013-10-29
CDISCPILOT01,SV,01-704-1135,3.0,BASELINE,1.0,2013-10-31,2013-10-31
CDISCPILOT01,SV,01-704-1135,3.5,AMBUL ECG PLACEMENT,13.0,2013-11-13,2013-11-13
CDISCPILOT01,SV,01-704-1135,4.0,WEEK 2,14.0,2013-11-14,2013-11-14
CDISCPILOT01,SV,01-704-1135,5.0,WEEK 4,28.0,2013-11-26,2013-11-26
CDISCPILOT01,SV,01-704-1135,6.0,AMBUL ECG REMOVAL,30.0,2013-11-28,2013-11-28
CDISCPILOT01,SV,01-704-1135,7.0,WEEK 6,42.0,2013-12-11,2013-12-11
CDISCPILOT01,SV,01-704-1135,8.0,WEEK 8,56.0,2013-12-25,2013-12-25
CDISCPILOT01,SV,01-704-1135,8.1,WEEK 10 (T),70.0,2014-01-09,2014-01-09
CDISCPILOT01,SV,01-704-1135,9.0,WEEK 12,84.0,2014-01-22,2014-01-22
CDISCPILOT01,SV,01-704-1135,9.1,WEEK 14 (T),98.0,2014-01-23,2014-01-23
CDISCPILOT01,SV,01-704-1135,10.0,WEEK 16,112.0,2014-02-19,2014-02-19
CDISCPILOT01,SV,01-704-1135,10.1,WEEK 18 (T),126.0,2014-03-08,2014-03-08
CDISCPILOT01,SV,01-704-1135,11.0,WEEK 20,140.0,2014-03-26,2014-03-26
CDISCPILOT01,SV,01-704-1135,11.1,WEEK 22 (T),154.0,2014-04-03,2014-04-03
CDISCPILOT01,SV,01-704-1135,12.0,WEEK 24,168.0,2014-05-01,2014-05-01
CDISCPILOT01,SV,01-704-1135,13.0,WEEK 26,182.0,2014-05-16,2014-05-16
CDISCPILOT01,SV,01-704-1164,1.0,SCREENING 1,-7.0,2012-09-11,2012-09-11
CDISCPILOT01,SV,01-704-1164,2.0,SCREENING 2,-1.0,2012-09-16,2012-09-16
CDISCPILOT01,SV,01-704-1164,3.0,BASELINE,1.0,2012-09-19,2012-09-19
CDISCPILOT01,SV,01-704-1164,3.5,AMBUL ECG PLACEMENT,13.0,2012-10-03,2012-10-03
CDISCPILOT01,SV,01-704-1164,4.0,WEEK 2,14.0,2012-10-04,2012-10-04
CDISCPILOT01,SV,01-704-1164,5.0,WEEK 4,28.0,2012-10-21,2012-10-21
CDISCPILOT01,SV,01-704-1164,6.0,AMBUL ECG REMOVAL,30.0,2012-10-23,2012-10-23
CDISCPILOT01,SV,01-704-1164,7.0,WEEK 6,42.0,2012-11-01,2012-11-01
CDISCPILOT01,SV,01-704-1164,8.0,WEEK 8,56.0,2012-11-15,2012-11-15
CDISCPILOT01,SV,01-704-1164,8.1,WEEK 10 (T),70.0,2012-11-28,2012-11-28
CDISCPILOT01,SV,01-704-1164,9.0,WEEK 12,84.0,2012-12-16,2012-12-16
CDISCPILOT01,SV,01-704-1164,9.1,WEEK 14 (T),98.0,2012-12-26,2012-12-26
CDISCPILOT01,SV,01-704-1164,10.0,WEEK 16,112.0,2013-01-14,2013-01-14
CDISCPILOT01,SV,01-704-1164,10.1,WEEK 18 (T),126.0,2013-01-23,2013-01-23
CDISCPILOT01,SV,01-704-1164,11.0,WEEK 20,140.0,2013-02-14,2013-02-14
CDISCPILOT01,SV,01-704-1164,11.1,WEEK 22 (T),154.0,2013-02-20,2013-02-20
CDISCPILOT01,SV,01-704-1164,12.0,WEEK 24,168.0,2013-03-17,2013-03-17
CDISCPILOT01,SV,01-704-1164,13.0,WEEK 26,182.0,2013-04-04,2013-04-04
CDISCPILOT01,SV,01-704-1218,1.0,SCREENING 1,-7.0,2012-11-11,2012-11-11
CDISCPILOT01,SV,01-704-1218,1.1,UNSCHEDULED 1.1,,2012-10-11,2012-10-11
CDISCPILOT01,SV,01-704-1218,1.2,UNSCHEDULED 1.2,,2012-11-11,2012-11-11
CDISCPILOT01,SV,01-704-1218,2.0,SCREENING 2,-1.0,2012-11-17,2012-11-17
CDISCPILOT01,SV,01-704-1218,3.0,BASELINE,1.0,2012-11-19,2012-11-19
CDISCPILOT01,SV,01-704-1218,3.5,AMBUL ECG PLACEMENT,13.0,2012-12-02,2012-12-02
CDISCPILOT01,SV,01-704-1218,4.0,WEEK 2,14.0,2012-12-03,2012-12-03
CDISCPILOT01,SV,01-704-1218,5.0,WEEK 4,28.0,2012-12-15,2012-12-15
CDISCPILOT01,SV,01-704-1218,6.0,AMBUL ECG REMOVAL,30.0,2012-12-17,2012-12-17
CDISCPILOT01,SV,01-704-1218,7.0,WEEK 6,42.0,2012-12-30,2012-12-30
CDISCPILOT01,SV,01-704-1218,8.0,WEEK 8,56.0,2013-01-14,2013-01-14
CDISCPILOT01,SV,01-704-1218,8.1,WEEK 10 (T),70.0,2013-01-25,2013-01-25
CDISCPILOT01,SV,01-704-1218,9.0,WEEK 12,84.0,2013-02-11,2013-02-11
CDISCPILOT01,SV,01-704-1218,9.1,WEEK 14 (T),98.0,2013-02-27,2013-02-27
CDISCPILOT01,SV,01-704-1218,10.0,WEEK 16,112.0,2013-03-18,2013-03-18
CDISCPILOT01,SV,01-704-1218,10.1,WEEK 18 (T),126.0,2013-03-28,2013-03-28
CDISCPILOT01,SV,01-704-1218,11.0,WEEK 20,140.0,2013-04-14,2013-04-14
CDISCPILOT01,SV,01-704-1218,11.1,WEEK 22 (T),154.0,2013-04-22,2013-04-22
CDISCPILOT01,SV,01-704-1218,12.0,WEEK 24,168.0,2013-05-13,2013-05-13
CDISCPILOT01,SV,01-704-1218,13.0,WEEK 26,182.0,2013-05-27,2013-05-27
CDISCPILOT01,SV,01-704-1233,1.0,SCREENING 1,-7.0,2013-03-08,2013-03-08
CDISCPILOT01,SV,01-704-1233,2.0,SCREENING 2,-1.0,2013-03-19,2013-03-19
CDISCPILOT01,SV,01-704-1233,3.0,BASELINE,1.0,2013-03-21,2013-03-21
CDISCPILOT01,SV,01-704-1233,3.5,AMBUL ECG PLACEMENT,13.0,2013-04-03,2013-04-03
CDISCPILOT01,SV,01-704-1233,4.0,WEEK 2,14.0,2013-04-04,2013-04-04
CDISCPILOT01,SV,01-704-1233,5.0,WEEK 4,28.0,2013-04-16,2013-04-16
CDISCPILOT01,SV,01-704-1233,6.0,AMBUL ECG REMOVAL,30.0,2013-04-18,2013-04-18
CDISCPILOT01,SV,01-704-1233,7.0,WEEK 6,42.0,2013-05-01,2013-05-01
CDISCPILOT01,SV,01-704-1233,8.0,WEEK 8,56.0,2013-05-16,2013-05-16
CDISCPILOT01,SV,01-704-1233,8.1,WEEK 10 (T),70.0,2013-05-30,2013-05-30
CDISCPILOT01,SV,01-704-1233,9.0,WEEK 12,84.0,2013-06-13,2013-06-13
CDISCPILOT01,SV,01-704-1233,9.1,WEEK 14 (T),98.0,2013-06-27,2013-06-27
CDISCPILOT01,SV,01-704-1233,10.0,WEEK 16,112.0,2013-07-11,2013-07-11
CDISCPILOT01,SV,01-704-1233,11.0,WEEK 20,140.0,2013-07-14,2013-07-14
CDISCPILOT01,SV,01-704-1241,1.0,SCREENING 1,-7.0,2013-08-14,2013-08-14
CDISCPILOT01,SV,01-704-1241,2.0,SCREENING 2,-1.0,2013-08-23,2013-08-23
CDISCPILOT01,SV,01-704-1241,3.0,BASELINE,1.0,2013-08-25,2013-08-25
CDISCPILOT01,SV,01-704-1241,3.5,AMBUL ECG PLACEMENT,13.0,2013-09-04,2013-09-04
CDISCPILOT01,SV,01-704-1241,4.0,WEEK 2,14.0,2013-09-05,2013-09-05
CDISCPILOT01,SV,01-704-1241,5.0,WEEK 4,28.0,2013-09-19,2013-09-19
CDISCPILOT01,SV,01-704-1241,6.0,AMBUL ECG REMOVAL,30.0,2013-09-21,2013-09-21
CDISCPILOT01,SV,01-704-1241,7.0,WEEK 6,42.0,2013-10-09,2013-10-09
CDISCPILOT01,SV,01-704-1241,8.0,WEEK 8,56.0,2013-10-31,2013-10-31
CDISCPILOT01,SV,01-704-1241,101.0,AE FOLLOW-UP,,2014-01-22,2014-01-22
CDISCPILOT01,SV,01-704-1260,1.0,SCREENING 1,-7.0,2012-08-23,2012-08-23
CDISCPILOT01,SV,01-704-1260,2.0,SCREENING 2,-1.0,2012-08-26,2012-08-26
CDISCPILOT01,SV,01-704-1260,3.0,BASELINE,1.0,2012-08-30,2012-08-30
CDISCPILOT01,SV,01-704-1260,3.5,AMBUL ECG PLACEMENT,13.0,2012-09-12,2012-09-12
CDISCPILOT01,SV,01-704-1260,4.0,WEEK 2,14.0,2012-09-13,2012-09-13
CDISCPILOT01,SV,01-704-1260,5.0,WEEK 4,28.0,2012-09-26,2012-09-26
CDISCPILOT01,SV,01-704-1260,6.0,AMBUL ECG REMOVAL,30.0,2012-09-28,2012-09-28
CDISCPILOT01,SV,01-704-1260,7.0,WEEK 6,42.0,2012-10-11,2012-10-11
CDISCPILOT01,SV,01-704-1260,8.0,WEEK 8,56.0,2012-10-24,2012-10-24
CDISCPILOT01,SV,01-704-1260,9.0,WEEK 12,84.0,2013-01-18,2013-01-18
CDISCPILOT01,SV,01-704-1266,1.0,SCREENING 1,-7.0,2013-10-05,2013-10-05
CDISCPILOT01,SV,01-704-1266,2.0,SCREENING 2,-1.0,2013-10-11,2013-10-11
CDISCPILOT01,SV,01-704-1266,3.0,BASELINE,1.0,2013-10-13,2013-10-13
CDISCPILOT01,SV,01-704-1266,3.5,AMBUL ECG PLACEMENT,13.0,2013-10-26,2013-10-26
CDISCPILOT01,SV,01-704-1266,4.0,WEEK 2,14.0,2013-10-27,2013-10-27
CDISCPILOT01,SV,01-704-1266,5.0,WEEK 4,28.0,2013-11-08,2013-11-08
CDISCPILOT01,SV,01-704-1266,6.0,AMBUL ECG REMOVAL,30.0,2013-11-10,2013-11-10
CDISCPILOT01,SV,01-704-1266,7.0,WEEK 6,42.0,2013-11-22,2013-11-22
CDISCPILOT01,SV,01-704-1266,8.0,WEEK 8,56.0,2013-12-06,2013-12-06
CDISCPILOT01,SV,01-704-1266,101.0,AE FOLLOW-UP,,2014-01-03,2014-01-03
CDISCPILOT01,SV,01-704-1323,1.0,SCREENING 1,-7.0,2013-06-13,2013-06-13
CDISCPILOT01,SV,01-704-1323,2.0,SCREENING 2,-1.0,2013-07-07,2013-07-07
CDISCPILOT01,SV,01-704-1323,3.0,BASELINE,1.0,2013-07-08,2013-07-08
CDISCPILOT01,SV,01-704-1323,3.5,AMBUL ECG PLACEMENT,13.0,2013-07-21,2013-07-21
CDISCPILOT01,SV,01-704-1323,4.0,WEEK 2,14.0,2013-07-23,2013-07-23
CDISCPILOT01,SV,01-704-1323,5.0,WEEK 4,28.0,2013-08-04,2013-08-04
CDISCPILOT01,SV,01-704-1323,6.0,AMBUL ECG REMOVAL,30.0,2013-08-06,2013-08-06
CDISCPILOT01,SV,01-704-1323,7.0,WEEK 6,42.0,2013-08-08,2013-08-08
CDISCPILOT01,SV,01-704-1323,101.0,AE FOLLOW-UP,,2013-10-01,2013-10-01
CDISCPILOT01,SV,01-704-1325,1.0,SCREENING 1,-7.0,2014-04-16,2014-04-16
CDISCPILOT01,SV,01-704-1325,2.0,SCREENING 2,-1.0,2014-04-21,2014-04-21
CDISCPILOT01,SV,01-704-1325,3.0,BASELINE,1.0,2014-04-23,2014-04-23
CDISCPILOT01,SV,01-704-1325,3.5,AMBUL ECG PLACEMENT,13.0,2014-05-06,2014-05-06
CDISCPILOT01,SV,01-704-1325,4.0,WEEK 2,14.0,2014-05-07,2014-05-07
CDISCPILOT01,SV,01-704-1325,5.0,WEEK 4,28.0,2014-05-19,2014-05-19
CDISCPILOT01,SV,01-704-1325,6.0,AMBUL ECG REMOVAL,30.0,2014-05-21,2014-05-21
CDISCPILOT01,SV,01-704-1325,7.0,WEEK 6,42.0,2014-06-04,2014-06-04
CDISCPILOT01,SV,01-704-1325,8.0,WEEK 8,56.0,2014-06-18,2014-06-18
CDISCPILOT01,SV,01-704-1325,8.1,WEEK 10 (T),70.0,2014-07-02,2014-07-02
CDISCPILOT01,SV,01-704-1325,9.0,WEEK 12,84.0,2014-07-16,2014-07-16
CDISCPILOT01,SV,01-704-1325,10.0,WEEK 16,112.0,2014-08-06,2014-08-06
CDISCPILOT01,SV,01-704-1332,1.0,SCREENING 1,-7.0,2013-11-24,2013-11-24
CDISCPILOT01,SV,01-704-1332,2.0,SCREENING 2,-1.0,2013-12-07,2013-12-07
CDISCPILOT01,SV,01-704-1332,3.0,BASELINE,1.0,2013-12-09,2013-12-09
CDISCPILOT01,SV,01-704-1332,3.5,AMBUL ECG PLACEMENT,13.0,2013-12-22,2013-12-22
CDISCPILOT01,SV,01-704-1332,4.0,WEEK 2,14.0,2013-12-23,2013-12-23
CDISCPILOT01,SV,01-704-1332,5.0,WEEK 4,28.0,2014-01-04,2014-01-04
CDISCPILOT01,SV,01-704-1332,6.0,AMBUL ECG REMOVAL,30.0,2014-01-06,2014-01-06
CDISCPILOT01,SV,01-704-1332,7.0,WEEK 6,42.0,2014-01-20,2014-01-20
CDISCPILOT01,SV,01-704-1332,8.0,WEEK 8,56.0,2014-02-03,2014-02-03
CDISCPILOT01,SV,01-704-1332,9.0,WEEK 12,84.0,2014-02-16,2014-02-16
CDISCPILOT01,SV,01-704-1332,101.0,AE FOLLOW-UP,,2014-02-24,2014-02-24
CDISCPILOT01,SV,01-704-1351,1.0,SCREENING 1,-7.0,2013-09-26,2013-09-26
CDISCPILOT01,SV,01-704-1351,1.1,UNSCHEDULED 1.1,,2013-10-03,2013-10-03
CDISCPILOT01,SV,01-704-1351,2.0,SCREENING 2,-1.0,2013-10-10,2013-10-10
CDISCPILOT01,SV,01-704-1351,3.0,BASELINE,1.0,2013-10-12,2013-10-12
CDISCPILOT01,SV,01-704-1351,4.0,WEEK 2,14.0,2013-10-26,2013-10-26
CDISCPILOT01,SV,01-704-1351,5.0,WEEK 4,28.0,2013-11-07,2013-11-07
CDISCPILOT01,SV,01-704-1351,5.1,UNSCHEDULED 5.1,,2013-11-09,2013-11-09
CDISCPILOT01,SV,01-704-1351,6.0,AMBUL ECG REMOVAL,30.0,2013-11-09,2013-11-09
CDISCPILOT01,SV,01-704-1351,7.0,WEEK 6,42.0,2013-11-16,2013-11-16
CDISCPILOT01,SV,01-704-1351,8.0,WEEK 8,56.0,2013-12-02,2013-12-02
CDISCPILOT01,SV,01-704-1351,8.1,WEEK 10 (T),70.0,2013-12-14,2013-12-14
CDISCPILOT01,SV,01-704-1351,9.0,WEEK 12,84.0,2013-12-28,2013-12-28
CDISCPILOT01,SV,01-704-1351,9.1,WEEK 14 (T),98.0,2014-01-11,2014-01-11
CDISCPILOT01,SV,01-704-1351,10.0,WEEK 16,112.0,2014-01-26,2014-01-26
CDISCPILOT01,SV,01-704-1351,10.1,WEEK 18 (T),126.0,2014-02-08,2014-02-08
CDISCPILOT01,SV,01-704-1351,11.0,WEEK 20,140.0,2014-03-01,2014-03-01
CDISCPILOT01,SV,01-704-1351,11.1,WEEK 22 (T),154.0,2014-03-15,2014-03-15
CDISCPILOT01,SV,01-704-1351,12.0,WEEK 24,168.0,2014-04-04,2014-04-04
CDISCPILOT01,SV,01-704-1351,13.0,WEEK 26,182.0,2014-04-18,2014-04-18
CDISCPILOT01,SV,01-704-1388,1.0,SCREENING 1,-7.0,2012-11-28,2012-11-28
CDISCPILOT01,SV,01-704-1388,2.0,SCREENING 2,-1.0,2012-12-05,2012-12-05
CDISCPILOT01,SV,01-704-1388,3.0,BASELINE,1.0,2012-12-07,2012-12-07
CDISCPILOT01,SV,01-704-1388,3.5,AMBUL ECG PLACEMENT,13.0,2012-12-20,2012-12-20
CDISCPILOT01,SV,01-704-1388,4.0,WEEK 2,14.0,2012-12-21,2012-12-21
CDISCPILOT01,SV,01-704-1388,5.0,WEEK 4,28.0,2013-01-02,2013-01-02
CDISCPILOT01,SV,01-704-1388,6.0,AMBUL ECG REMOVAL,30.0,2013-01-04,2013-01-04
CDISCPILOT01,SV,01-704-1388,7.0,WEEK 6,42.0,2013-01-18,2013-01-18
CDISCPILOT01,SV,01-704-1388,8.0,WEEK 8,56.0,2013-01-30,2013-01-30
CDISCPILOT01,SV,01-704-1388,8.1,WEEK 10 (T),70.0,2013-02-16,2013-02-16
CDISCPILOT01,SV,01-704-1388,9.0,WEEK 12,84.0,2013-02-27,2013-02-27
CDISCPILOT01,SV,01-704-1388,9.1,WEEK 14 (T),98.0,2013-03-15,2013-03-15
CDISCPILOT01,SV,01-704-1388,10.0,WEEK 16,112.0,2013-03-27,2013-03-27
CDISCPILOT01,SV,01-704-1388,10.1,WEEK 18 (T),126.0,2013-04-12,2013-04-12
CDISCPILOT01,SV,01-704-1388,11.0,WEEK 20,140.0,2013-04-28,2013-04-28
CDISCPILOT01,SV,01-704-1388,11.1,WEEK 22 (T),154.0,2013-05-12,2013-05-12
CDISCPILOT01,SV,01-704-1388,12.0,WEEK 24,168.0,2013-05-23,2013-05-23
CDISCPILOT01,SV,01-704-1388,13.0,WEEK 26,182.0,2013-06-19,2013-06-19
CDISCPILOT01,SV,01-704-1435,1.0,SCREENING 1,-7.0,2012-11-01,2012-11-01
CDISCPILOT01,SV,01-704-1435,2.0,SCREENING 2,-1.0,2012-11-15,2012-11-15
CDISCPILOT01,SV,01-704-1435,3.0,BASELINE,1.0,2012-11-17,2012-11-17
CDISCPILOT01,SV,01-704-1435,3.5,AMBUL ECG PLACEMENT,13.0,2012-11-30,2012-11-30
CDISCPILOT01,SV,01-704-1435,4.0,WEEK 2,14.0,2012-12-01,2012-12-01
CDISCPILOT01,SV,01-704-1435,5.0,WEEK 4,28.0,2012-12-15,2012-12-15
CDISCPILOT01,SV,01-704-1435,6.0,AMBUL ECG REMOVAL,30.0,2012-12-17,2012-12-17
CDISCPILOT01,SV,01-704-1435,7.0,WEEK 6,42.0,2012-12-30,2012-12-30
CDISCPILOT01,SV,01-704-1435,8.0,WEEK 8,56.0,2013-01-12,2013-01-12
CDISCPILOT01,SV,01-704-1445,1.0,SCREENING 1,-7.0,2014-05-01,2014-05-01
CDISCPILOT01,SV,01-704-1445,1.1,UNSCHEDULED 1.1,,2014-05-03,2014-05-03
CDISCPILOT01,SV,01-704-1445,2.0,SCREENING 2,-1.0,2014-05-09,2014-05-09
CDISCPILOT01,SV,01-704-1445,3.0,BASELINE,1.0,2014-05-11,2014-05-11
CDISCPILOT01,SV,01-704-1445,3.5,AMBUL ECG PLACEMENT,13.0,2014-05-24,2014-05-24
CDISCPILOT01,SV,01-704-1445,4.0,WEEK 2,14.0,2014-05-25,2014-05-25
CDISCPILOT01,SV,01-704-1445,5.0,WEEK 4,28.0,2014-06-11,2014-06-11
CDISCPILOT01,SV,01-704-1445,6.0,AMBUL ECG REMOVAL,30.0,2014-06-13,2014-06-13
CDISCPILOT01,SV,01-704-1445,7.0,WEEK 6,42.0,2014-06-25,2014-06-25
CDISCPILOT01,SV,01-704-1445,8.0,WEEK 8,56.0,2014-07-09,2014-07-09
CDISCPILOT01,SV,01-704-1445,8.1,WEEK 10 (T),70.0,2014-07-27,2014-07-27
CDISCPILOT01,SV,01-704-1445,9.0,WEEK 12,84.0,2014-08-06,2014-08-06
CDISCPILOT01,SV,01-704-1445,9.1,WEEK 14 (T),98.0,2014-08-24,2014-08-24
CDISCPILOT01,SV,01-704-1445,10.0,WEEK 16,112.0,2014-09-03,2014-09-03
CDISCPILOT01,SV,01-704-1445,10.1,WEEK 18 (T),126.0,2014-09-25,2014-09-25
CDISCPILOT01,SV,01-704-1445,11.0,WEEK 20,140.0,2014-10-01,2014-10-01
CDISCPILOT01,SV,01-704-1445,11.1,WEEK 22 (T),154.0,2014-10-15,2014-10-15
CDISCPILOT01,SV,01-704-1445,12.0,WEEK 24,168.0,2014-11-01,2014-11-01
CDISCPILOT01,SV,01-705-1011,1.0,SCREENING 1,-7.0,2013-09-01,2013-09-01
CDISCPILOT01,SV,01-705-1018,1.0,SCREENING 1,-7.0,2013-06-30,2013-06-30
CDISCPILOT01,SV,01-705-1018,2.0,SCREENING 2,-1.0,2013-07-03,2013-07-03
CDISCPILOT01,SV,01-705-1018,3.0,BASELINE,1.0,2013-07-05,2013-07-05
CDISCPILOT01,SV,01-705-1018,4.0,WEEK 2,14.0,2013-07-12,2013-07-12
CDISCPILOT01,SV,01-705-1031,1.0,SCREENING 1,-7.0,2013-11-17,2013-11-17
CDISCPILOT01,SV,01-705-1031,2.0,SCREENING 2,-1.0,2013-11-19,2013-11-19
CDISCPILOT01,SV,01-705-1031,3.0,BASELINE,1.0,2013-11-27,2013-11-27
CDISCPILOT01,SV,01-705-1031,3.5,AMBUL ECG PLACEMENT,13.0,2013-12-17,2013-12-17
CDISCPILOT01,SV,01-705-1031,4.0,WEEK 2,14.0,2013-12-18,2013-12-18
CDISCPILOT01,SV,01-705-1031,5.0,WEEK 4,28.0,2013-12-25,2013-12-25
CDISCPILOT01,SV,01-705-1031,6.0,AMBUL ECG REMOVAL,30.0,2013-12-27,2013-12-27
CDISCPILOT01,SV,01-705-1031,7.0,WEEK 6,42.0,2014-01-12,2014-01-12
CDISCPILOT01,SV,01-705-1031,8.0,WEEK 8,56.0,2014-01-23,2014-01-23
CDISCPILOT01,SV,01-705-1031,8.1,WEEK 10 (T),70.0,2014-02-06,2014-02-06
CDISCPILOT01,SV,01-705-1031,9.0,WEEK 12,84.0,2014-02-20,2014-02-20
CDISCPILOT01,SV,01-705-1031,9.1,WEEK 14 (T),98.0,2014-03-06,2014-03-06
CDISCPILOT01,SV,01-705-1031,10.0,WEEK 16,112.0,2014-03-20,2014-03-20
CDISCPILOT01,SV,01-705-1031,10.1,WEEK 18 (T),126.0,2014-04-03,2014-04-03
CDISCPILOT01,SV,01-705-1031,11.0,WEEK 20,140.0,2014-04-13,2014-04-13
CDISCPILOT01,SV,01-705-1031,11.1,WEEK 22 (T),154.0,2014-04-26,2014-04-26
CDISCPILOT01,SV,01-705-1031,12.0,WEEK 24,168.0,2014-05-11,2014-05-11
CDISCPILOT01,SV,01-705-1058,1.0,SCREENING 1,-7.0,2013-12-02,2013-12-02
CDISCPILOT01,SV,01-705-1059,1.0,SCREENING 1,-7.0,2013-08-02,2013-08-02
CDISCPILOT01,SV,01-705-1059,2.0,SCREENING 2,-1.0,2013-08-03,2013-08-03
CDISCPILOT01,SV,01-705-1059,3.0,BASELINE,1.0,2013-08-05,2013-08-05
CDISCPILOT01,SV,01-705-1059,3.5,AMBUL ECG PLACEMENT,13.0,2013-08-18,2013-08-18
CDISCPILOT01,SV,01-705-1059,4.0,WEEK 2,14.0,2013-08-19,2013-08-19
CDISCPILOT01,SV,01-705-1059,5.0,WEEK 4,28.0,2013-09-05,2013-09-05
CDISCPILOT01,SV,01-705-1059,6.0,AMBUL ECG REMOVAL,30.0,2013-09-07,2013-09-07
CDISCPILOT01,SV,01-705-1059,7.0,WEEK 6,42.0,2013-09-19,2013-09-19
CDISCPILOT01,SV,01-705-1059,8.0,WEEK 8,56.0,2013-10-03,2013-10-03
CDISCPILOT01,SV,01-705-1059,8.1,WEEK 10 (T),70.0,2013-10-17,2013-10-17
CDISCPILOT01,SV,01-705-1059,9.0,WEEK 12,84.0,2013-11-07,2013-11-07
CDISCPILOT01,SV,01-705-1059,9.1,WEEK 14 (T),98.0,2013-11-21,2013-11-21
CDISCPILOT01,SV,01-705-1059,10.0,WEEK 16,112.0,2013-12-05,2013-12-05
CDISCPILOT01,SV,01-705-1059,101.0,AE FOLLOW-UP,,2014-01-02,2014-01-02
CDISCPILOT01,SV,01-705-1059,201.0,RETRIEVAL,168.0,2014-02-06,2014-02-06
CDISCPILOT01,SV,01-705-1112,1.0,SCREENING 1,-7.0,2014-02-23,2014-02-23
CDISCPILOT01,SV,01-705-1186,1.0,SCREENING 1,-7.0,2014-01-03,2014-01-03
CDISCPILOT01,SV,01-705-1186,2.0,SCREENING 2,-1.0,2014-01-06,2014-01-06
CDISCPILOT01,SV,01-705-1186,3.0,BASELINE,1.0,2014-01-08,2014-01-08
CDISCPILOT01,SV,01-705-1186,3.5,AMBUL ECG PLACEMENT,13.0,2014-01-22,2014-01-22
CDISCPILOT01,SV,01-705-1186,4.0,WEEK 2,14.0,2014-01-23,2014-01-23
CDISCPILOT01,SV,01-705-1186,4.1,UNSCHEDULED 4.1,,2014-01-26,2014-01-26
CDISCPILOT01,SV,01-705-1186,4.2,UNSCHEDULED 4.2,,2014-02-01,2014-02-01
CDISCPILOT01,SV,01-705-1186,5.0,WEEK 4,28.0,2014-02-07,2014-02-07
CDISCPILOT01,SV,01-705-1186,5.1,UNSCHEDULED 5.1,,2014-02-07,2014-02-07
CDISCPILOT01,SV,01-705-1199,1.0,SCREENING 1,-7.0,2013-09-11,2013-09-11
CDISCPILOT01,SV,01-705-1199,2.0,SCREENING 2,-1.0,2013-09-14,2013-09-14
CDISCPILOT01,SV,01-705-1199,3.0,BASELINE,1.0,2013-09-16,2013-09-16
CDISCPILOT01,SV,01-705-1199,4.0,WEEK 2,14.0,2013-09-29,2013-09-29
CDISCPILOT01,SV,01-705-1199,101.0,AE FOLLOW-UP,,2013-09-29,2013-09-29
CDISCPILOT01,SV,01-705-1243,1.0,SCREENING 1,-7.0,2013-02-26,2013-02-26
CDISCPILOT01,SV,01-705-1280,1.0,SCREENING 1,-7.0,2014-01-11,2014-01-11
CDISCPILOT01,SV,01-705-1280,2.0,SCREENING 2,-1.0,2014-01-15,2014-01-15
CDISCPILOT01,SV,01-705-1280,3.0,BASELINE,1.0,2014-01-17,2014-01-17
CDISCPILOT01,SV,01-705-1280,3.5,AMBUL ECG PLACEMENT,13.0,2014-01-30,2014-01-30
CDISCPILOT01,SV,01-705-1280,4.0,WEEK 2,14.0,2014-01-31,2014-01-31
CDISCPILOT01,SV,01-705-1280,5.0,WEEK 4,28.0,2014-02-13,2014-02-13
CDISCPILOT01,SV,01-705-1280,6.0,AMBUL ECG REMOVAL,30.0,2014-02-15,2014-02-15
CDISCPILOT01,SV,01-705-1280,7.0,WEEK 6,42.0,2014-03-07,2014-03-07
CDISCPILOT01,SV,01-705-1280,8.0,WEEK 8,56.0,2014-03-21,2014-03-21
CDISCPILOT01,SV,01-705-1280,8.1,WEEK 10 (T),70.0,2014-04-04,2014-04-04
CDISCPILOT01,SV,01-705-1280,9.0,WEEK 12,84.0,2014-04-18,2014-04-18
CDISCPILOT01,SV,01-705-1280,9.1,WEEK 14 (T),98.0,2014-05-02,2014-05-02
CDISCPILOT01,SV,01-705-1280,10.0,WEEK 16,112.0,2014-05-16,2014-05-16
CDISCPILOT01,SV,01-705-1280,10.1,WEEK 18 (T),126.0,2014-05-30,2014-05-30
CDISCPILOT01,SV,01-705-1280,11.0,WEEK 20,140.0,2014-06-13,2014-06-13
CDISCPILOT01,SV,01-705-1280,11.1,WEEK 22 (T),154.0,2014-06-27,2014-06-27
CDISCPILOT01,SV,01-705-1280,12.0,WEEK 24,168.0,2014-07-11,2014-07-11
CDISCPILOT01,SV,01-705-1280,13.0,WEEK 26,182.0,2014-07-25,2014-07-25
CDISCPILOT01,SV,01-705-1281,1.0,SCREENING 1,-7.0,2013-11-26,2013-11-26
CDISCPILOT01,SV,01-705-1281,2.0,SCREENING 2,-1.0,2013-11-26,2013-11-26
CDISCPILOT01,SV,01-705-1281,3.0,BASELINE,1.0,2013-11-28,2013-11-28
CDISCPILOT01,SV,01-705-1281,3.5,AMBUL ECG PLACEMENT,13.0,2013-12-14,2013-12-14
CDISCPILOT01,SV,01-705-1281,4.0,WEEK 2,14.0,2013-12-15,2013-12-15
CDISCPILOT01,SV,01-705-1281,5.0,WEEK 4,28.0,2013-12-28,2013-12-28
CDISCPILOT01,SV,01-705-1281,6.0,AMBUL ECG REMOVAL,30.0,2013-12-30,2013-12-30
CDISCPILOT01,SV,01-705-1281,7.0,WEEK 6,42.0,2014-01-07,2014-01-07
CDISCPILOT01,SV,01-705-1281,8.0,WEEK 8,56.0,2014-01-21,2014-01-21
CDISCPILOT01,SV,01-705-1281,8.1,WEEK 10 (T),70.0,2014-02-04,2014-02-04
CDISCPILOT01,SV,01-705-1281,9.0,WEEK 12,84.0,2014-02-18,2014-02-18
CDISCPILOT01,SV,01-705-1281,9.1,WEEK 14 (T),98.0,2014-03-04,2014-03-04
CDISCPILOT01,SV,01-705-1281,10.0,WEEK 16,112.0,2014-03-17,2014-03-17
CDISCPILOT01,SV,01-705-1281,101.0,AE FOLLOW-UP,,2014-04-20,2014-04-20
CDISCPILOT01,SV,01-705-1282,1.0,SCREENING 1,-7.0,2012-12-23,2012-12-23
CDISCPILOT01,SV,01-705-1282,2.0,SCREENING 2,-1.0,2012-12-24,2012-12-24
CDISCPILOT01,SV,01-705-1282,3.0,BASELINE,1.0,2012-12-26,2012-12-26
CDISCPILOT01,SV,01-705-1282,3.5,AMBUL ECG PLACEMENT,13.0,2013-01-08,2013-01-08
CDISCPILOT01,SV,01-705-1282,4.0,WEEK 2,14.0,2013-01-09,2013-01-09
CDISCPILOT01,SV,01-705-1282,5.0,WEEK 4,28.0,2013-01-21,2013-01-21
CDISCPILOT01,SV,01-705-1282,6.0,AMBUL ECG REMOVAL,30.0,2013-01-23,2013-01-23
CDISCPILOT01,SV,01-705-1282,7.0,WEEK 6,42.0,2013-02-07,2013-02-07
CDISCPILOT01,SV,01-705-1282,8.0,WEEK 8,56.0,2013-02-20,2013-02-20
CDISCPILOT01,SV,01-705-1282,8.1,WEEK 10 (T),70.0,2013-03-06,2013-03-06
CDISCPILOT01,SV,01-705-1282,9.0,WEEK 12,84.0,2013-03-20,2013-03-20
CDISCPILOT01,SV,01-705-1282,9.1,WEEK 14 (T),98.0,2013-04-03,2013-04-03
CDISCPILOT01,SV,01-705-1282,10.0,WEEK 16,112.0,2013-04-16,2013-04-16
CDISCPILOT01,SV,01-705-1282,10.1,WEEK 18 (T),126.0,2013-04-30,2013-04-30
CDISCPILOT01,SV,01-705-1282,11.0,WEEK 20,140.0,2013-05-14,2013-05-14
CDISCPILOT01,SV,01-705-1282,11.1,WEEK 22 (T),154.0,2013-05-28,2013-05-28
CDISCPILOT01,SV,01-705-1282,12.0,WEEK 24,168.0,2013-06-11,2013-06-11
CDISCPILOT01,SV,01-705-1282,13.0,WEEK 26,182.0,2013-06-24,2013-06-24
CDISCPILOT01,SV,01-705-1292,1.0,SCREENING 1,-7.0,2013-10-11,2013-10-11
CDISCPILOT01,SV,01-705-1292,2.0,SCREENING 2,-1.0,2013-10-12,2013-10-12
CDISCPILOT01,SV,01-705-1292,3.0,BASELINE,1.0,2013-10-14,2013-10-14
CDISCPILOT01,SV,01-705-1292,3.5,AMBUL ECG PLACEMENT,13.0,2013-10-28,2013-10-28
CDISCPILOT01,SV,01-705-1292,4.0,WEEK 2,14.0,2013-10-29,2013-10-29
CDISCPILOT01,SV,01-705-1292,5.0,WEEK 4,28.0,2013-11-22,2013-11-22
CDISCPILOT01,SV,01-705-1292,5.1,UNSCHEDULED 5.1,,2013-11-25,2013-11-25
CDISCPILOT01,SV,01-705-1292,6.0,AMBUL ECG REMOVAL,30.0,2013-11-25,2013-11-25
CDISCPILOT01,SV,01-705-1292,7.0,WEEK 6,42.0,2013-12-11,2013-12-11
CDISCPILOT01,SV,01-705-1292,8.0,WEEK 8,56.0,2014-01-02,2014-01-02
CDISCPILOT01,SV,01-705-1292,8.1,WEEK 10 (T),70.0,2014-01-16,2014-01-16
CDISCPILOT01,SV,01-705-1292,9.0,WEEK 12,84.0,2014-02-07,2014-02-07
CDISCPILOT01,SV,01-705-1292,9.1,WEEK 14 (T),98.0,2014-02-21,2014-02-21
CDISCPILOT01,SV,01-705-1292,10.0,WEEK 16,112.0,2014-03-03,2014-03-03
CDISCPILOT01,SV,01-705-1292,10.1,WEEK 18 (T),126.0,2014-03-17,2014-03-17
CDISCPILOT01,SV,01-705-1292,11.0,WEEK 20,140.0,2014-03-31,2014-03-31
CDISCPILOT01,SV,01-705-1292,11.1,WEEK 22 (T),154.0,2014-04-14,2014-04-14
CDISCPILOT01,SV,01-705-1292,12.0,WEEK 24,168.0,2014-04-28,2014-04-28
CDISCPILOT01,SV,01-705-1292,13.0,WEEK 26,182.0,2014-05-14,2014-05-14
CDISCPILOT01,SV,01-705-1303,1.0,SCREENING 1,-7.0,2013-12-10,2013-12-10
CDISCPILOT01,SV,01-705-1303,2.0,SCREENING 2,-1.0,2013-12-14,2013-12-14
CDISCPILOT01,SV,01-705-1303,3.0,BASELINE,1.0,2013-12-16,2013-12-16
CDISCPILOT01,SV,01-705-1303,3.5,AMBUL ECG PLACEMENT,13.0,2013-12-29,2013-12-29
CDISCPILOT01,SV,01-705-1303,4.0,WEEK 2,14.0,2013-12-30,2013-12-30
CDISCPILOT01,SV,01-705-1303,5.0,WEEK 4,28.0,2014-01-12,2014-01-12
CDISCPILOT01,SV,01-705-1303,6.0,AMBUL ECG REMOVAL,30.0,2014-01-14,2014-01-14
CDISCPILOT01,SV,01-705-1303,7.0,WEEK 6,42.0,2014-01-26,2014-01-26
CDISCPILOT01,SV,01-705-1303,8.0,WEEK 8,56.0,2014-02-10,2014-02-10
CDISCPILOT01,SV,01-705-1303,8.1,WEEK 10 (T),70.0,2014-02-24,2014-02-24
CDISCPILOT01,SV,01-705-1303,9.0,WEEK 12,84.0,2014-03-03,2014-03-03
CDISCPILOT01,SV,01-705-1303,9.1,WEEK 14 (T),98.0,2014-03-17,2014-03-17
CDISCPILOT01,SV,01-705-1303,10.0,WEEK 16,112.0,2014-04-07,2014-04-07
CDISCPILOT01,SV,01-705-1303,10.1,WEEK 18 (T),126.0,2014-04-21,2014-04-21
CDISCPILOT01,SV,01-705-1303,11.0,WEEK 20,140.0,2014-06-02,2014-06-02
CDISCPILOT01,SV,01-705-1310,1.0,SCREENING 1,-7.0,2013-10-26,2013-10-26
CDISCPILOT01,SV,01-705-1310,2.0,SCREENING 2,-1.0,2013-10-31,2013-10-31
CDISCPILOT01,SV,01-705-1310,3.0,BASELINE,1.0,2013-11-02,2013-11-02
CDISCPILOT01,SV,01-705-1310,3.5,AMBUL ECG PLACEMENT,13.0,2013-11-21,2013-11-21
CDISCPILOT01,SV,01-705-1310,4.0,WEEK 2,14.0,2013-11-22,2013-11-22
CDISCPILOT01,SV,01-705-1310,5.0,WEEK 4,28.0,2013-11-30,2013-11-30
CDISCPILOT01,SV,01-705-1310,6.0,AMBUL ECG REMOVAL,30.0,2013-12-02,2013-12-02
CDISCPILOT01,SV,01-705-1310,7.0,WEEK 6,42.0,2013-12-16,2013-12-16
CDISCPILOT01,SV,01-705-1310,8.0,WEEK 8,56.0,2013-12-26,2013-12-26
CDISCPILOT01,SV,01-705-1310,8.1,WEEK 10 (T),70.0,2014-01-10,2014-01-10
CDISCPILOT01,SV,01-705-1310,8.2,UNSCHEDULED 8.2,,2014-01-10,2014-01-10
CDISCPILOT01,SV,01-705-1310,9.0,WEEK 12,84.0,2014-01-23,2014-01-23
CDISCPILOT01,SV,01-705-1310,101.0,AE FOLLOW-UP,,2014-02-24,2014-02-24
CDISCPILOT01,SV,01-705-1349,1.0,SCREENING 1,-7.0,2013-02-24,2013-02-24
CDISCPILOT01,SV,01-705-1349,1.1,UNSCHEDULED 1.1,,2013-03-03,2013-03-03
CDISCPILOT01,SV,01-705-1349,2.0,SCREENING 2,-1.0,2013-03-08,2013-03-08
CDISCPILOT01,SV,01-705-1349,3.0,BASELINE,1.0,2013-03-10,2013-03-10
CDISCPILOT01,SV,01-705-1349,3.5,AMBUL ECG PLACEMENT,13.0,2013-03-23,2013-03-23
CDISCPILOT01,SV,01-705-1349,4.0,WEEK 2,14.0,2013-03-24,2013-03-24
CDISCPILOT01,SV,01-705-1349,5.0,WEEK 4,28.0,2013-04-04,2013-04-04
CDISCPILOT01,SV,01-705-1349,6.0,AMBUL ECG REMOVAL,30.0,2013-04-17,2013-04-17
CDISCPILOT01,SV,01-705-1349,7.0,WEEK 6,42.0,2013-04-17,2013-04-17
CDISCPILOT01,SV,01-705-1349,8.0,WEEK 8,56.0,2013-05-01,2013-05-01
CDISCPILOT01,SV,01-705-1349,8.1,WEEK 10 (T),70.0,2013-05-15,2013-05-15
CDISCPILOT01,SV,01-705-1349,9.0,WEEK 12,84.0,2013-05-28,2013-05-28
CDISCPILOT01,SV,01-705-1349,9.1,WEEK 14 (T),98.0,2013-06-11,2013-06-11
CDISCPILOT01,SV,01-705-1349,10.0,WEEK 16,112.0,2013-06-25,2013-06-25
CDISCPILOT01,SV,01-705-1349,10.1,WEEK 18 (T),126.0,2013-07-09,2013-07-09
CDISCPILOT01,SV,01-705-1349,11.0,WEEK 20,140.0,2013-07-23,2013-07-23
CDISCPILOT01,SV,01-705-1349,11.1,WEEK 22 (T),154.0,2013-08-06,2013-08-06
CDISCPILOT01,SV,01-705-1349,12.0,WEEK 24,168.0,2013-08-25,2013-08-25
CDISCPILOT01,SV,01-705-1349,13.0,WEEK 26,182.0,2013-09-08,2013-09-08
CDISCPILOT01,SV,01-705-1377,1.0,SCREENING 1,-7.0,2013-12-29,2013-12-29
CDISCPILOT01,SV,01-705-1377,2.0,SCREENING 2,-1.0,2014-01-02,2014-01-02
CDISCPILOT01,SV,01-705-1377,3.0,BASELINE,1.0,2014-01-04,2014-01-04
CDISCPILOT01,SV,01-705-1377,3.5,AMBUL ECG PLACEMENT,13.0,2014-01-24,2014-01-24
CDISCPILOT01,SV,01-705-1377,4.0,WEEK 2,14.0,2014-01-25,2014-01-25
CDISCPILOT01,SV,01-705-1377,5.0,WEEK 4,28.0,2014-02-07,2014-02-07
CDISCPILOT01,SV,01-705-1377,6.0,AMBUL ECG REMOVAL,30.0,2014-02-09,2014-02-09
CDISCPILOT01,SV,01-705-1377,7.0,WEEK 6,42.0,2014-03-07,2014-03-07
CDISCPILOT01,SV,01-705-1382,1.0,SCREENING 1,-7.0,2013-05-09,2013-05-09
CDISCPILOT01,SV,01-705-1382,2.0,SCREENING 2,-1.0,2013-05-11,2013-05-11
CDISCPILOT01,SV,01-705-1382,3.0,BASELINE,1.0,2013-05-13,2013-05-13
CDISCPILOT01,SV,01-705-1382,4.0,WEEK 2,14.0,2013-05-13,2013-05-13
CDISCPILOT01,SV,01-705-1393,1.0,SCREENING 1,-7.0,2012-09-02,2012-09-02
CDISCPILOT01,SV,01-705-1393,1.1,UNSCHEDULED 1.1,,2012-09-05,2012-09-05
CDISCPILOT01,SV,01-705-1393,2.0,SCREENING 2,-1.0,2012-09-05,2012-09-05
CDISCPILOT01,SV,01-705-1393,3.0,BASELINE,1.0,2012-09-07,2012-09-07
CDISCPILOT01,SV,01-705-1393,3.5,AMBUL ECG PLACEMENT,13.0,2012-09-26,2012-09-26
CDISCPILOT01,SV,01-705-1393,4.0,WEEK 2,14.0,2012-09-27,2012-09-27
CDISCPILOT01,SV,01-705-1393,5.0,WEEK 4,28.0,2012-10-10,2012-10-10
CDISCPILOT01,SV,01-705-1393,6.0,AMBUL ECG REMOVAL,30.0,2012-10-12,2012-10-12
CDISCPILOT01,SV,01-705-1393,7.0,WEEK 6,42.0,2012-10-26,2012-10-26
CDISCPILOT01,SV,01-705-1393,8.0,WEEK 8,56.0,2012-11-02,2012-11-02
CDISCPILOT01,SV,01-705-1393,8.1,WEEK 10 (T),70.0,2012-11-16,2012-11-16
CDISCPILOT01,SV,01-705-1393,9.0,WEEK 12,84.0,2012-12-05,2012-12-05
CDISCPILOT01,SV,01-705-1393,9.1,WEEK 14 (T),98.0,2012-12-20,2012-12-20
CDISCPILOT01,SV,01-705-1393,10.0,WEEK 16,112.0,2013-01-02,2013-01-02
CDISCPILOT01,SV,01-705-1393,10.1,WEEK 18 (T),126.0,2013-01-16,2013-01-16
CDISCPILOT01,SV,01-705-1393,11.0,WEEK 20,140.0,2013-02-20,2013-02-20
CDISCPILOT01,SV,01-705-1393,101.0,AE FOLLOW-UP,,2013-04-25,2013-04-25
CDISCPILOT01,SV,01-705-1421,1.0,SCREENING 1,-7.0,2013-01-14,2013-01-14
CDISCPILOT01,SV,01-705-1431,1.0,SCREENING 1,-7.0,2013-06-16,2013-06-16
CDISCPILOT01,SV,01-705-1431,2.0,SCREENING 2,-1.0,2013-06-21,2013-06-21
CDISCPILOT01,SV,01-705-1431,3.0,BASELINE,1.0,2013-06-23,2013-06-23
CDISCPILOT01,SV,01-705-1431,3.5,AMBUL ECG PLACEMENT,13.0,2013-07-06,2013-07-06
CDISCPILOT01,SV,01-705-1431,4.0,WEEK 2,14.0,2013-07-07,2013-07-07
CDISCPILOT01,SV,01-705-1431,5.0,WEEK 4,28.0,2013-07-20,2013-07-20
CDISCPILOT01,SV,01-705-1431,6.0,AMBUL ECG REMOVAL,30.0,2013-07-22,2013-07-22
CDISCPILOT01,SV,01-705-1431,7.0,WEEK 6,42.0,2013-08-07,2013-08-07
CDISCPILOT01,SV,01-705-1431,8.0,WEEK 8,56.0,2013-08-21,2013-08-21
CDISCPILOT01,SV,01-705-1431,8.1,WEEK 10 (T),70.0,2013-09-04,2013-09-04
CDISCPILOT01,SV,01-705-1431,9.0,WEEK 12,84.0,2013-09-18,2013-09-18
CDISCPILOT01,SV,01-705-1431,9.1,WEEK 14 (T),98.0,2013-10-02,2013-10-02
CDISCPILOT01,SV,01-705-1431,10.0,WEEK 16,112.0,2013-10-17,2013-10-17
CDISCPILOT01,SV,01-705-1431,10.1,WEEK 18 (T),126.0,2013-10-30,2013-10-30
CDISCPILOT01,SV,01-705-1431,11.0,WEEK 20,140.0,2013-11-13,2013-11-13
CDISCPILOT01,SV,01-705-1431,11.1,WEEK 22 (T),154.0,2013-11-27,2013-11-27
CDISCPILOT01,SV,01-705-1431,12.0,WEEK 24,168.0,2013-12-05,2013-12-05
CDISCPILOT01,SV,01-705-1431,13.0,WEEK 26,182.0,2013-12-19,2013-12-19
CDISCPILOT01,SV,01-706-1041,1.0,SCREENING 1,-7.0,2013-12-21,2013-12-21
CDISCPILOT01,SV,01-706-1041,2.0,SCREENING 2,-1.0,2013-12-28,2013-12-28
CDISCPILOT01,SV,01-706-1041,3.0,BASELINE,1.0,2013-12-31,2013-12-31
CDISCPILOT01,SV,01-706-1041,3.5,AMBUL ECG PLACEMENT,13.0,2014-01-11,2014-01-11
CDISCPILOT01,SV,01-706-1041,4.0,WEEK 2,14.0,2014-01-14,2014-01-14
CDISCPILOT01,SV,01-706-1041,5.0,WEEK 4,28.0,2014-01-28,2014-01-28
CDISCPILOT01,SV,01-706-1041,6.0,AMBUL ECG REMOVAL,30.0,2014-01-30,2014-01-30
CDISCPILOT01,SV,01-706-1041,7.0,WEEK 6,42.0,2014-02-11,2014-02-11
CDISCPILOT01,SV,01-706-1041,8.0,WEEK 8,56.0,2014-03-04,2014-03-04
CDISCPILOT01,SV,01-706-1041,8.1,WEEK 10 (T),70.0,2014-03-18,2014-03-18
CDISCPILOT01,SV,01-706-1041,9.0,WEEK 12,84.0,2014-04-01,2014-04-01
CDISCPILOT01,SV,01-706-1041,9.1,WEEK 14 (T),98.0,2014-04-22,2014-04-22
CDISCPILOT01,SV,01-706-1041,10.0,WEEK 16,112.0,2014-05-06,2014-05-06
CDISCPILOT01,SV,01-706-1041,10.1,WEEK 18 (T),126.0,2014-05-20,2014-05-20
CDISCPILOT01,SV,01-706-1041,11.0,WEEK 20,140.0,2014-06-10,2014-06-10
CDISCPILOT01,SV,01-706-1041,11.1,WEEK 22 (T),154.0,2014-06-26,2014-06-26
CDISCPILOT01,SV,01-706-1041,12.0,WEEK 24,168.0,2014-07-15,2014-07-15
CDISCPILOT01,SV,01-706-1041,13.0,WEEK 26,182.0,2014-07-29,2014-07-29
CDISCPILOT01,SV,01-706-1049,1.0,SCREENING 1,-7.0,2013-04-30,2013-04-30
CDISCPILOT01,SV,01-706-1049,2.0,SCREENING 2,-1.0,2013-05-11,2013-05-11
CDISCPILOT01,SV,01-706-1049,3.0,BASELINE,1.0,2013-05-14,2013-05-14
CDISCPILOT01,SV,01-706-1049,3.5,AMBUL ECG PLACEMENT,13.0,2013-05-25,2013-05-25
CDISCPILOT01,SV,01-706-1049,4.0,WEEK 2,14.0,2013-05-28,2013-05-28
CDISCPILOT01,SV,01-706-1049,5.0,WEEK 4,28.0,2013-06-11,2013-06-11
CDISCPILOT01,SV,01-706-1049,6.0,AMBUL ECG REMOVAL,30.0,2013-06-13,2013-06-13
CDISCPILOT01,SV,01-706-1049,7.0,WEEK 6,42.0,2013-06-25,2013-06-25
CDISCPILOT01,SV,01-706-1049,101.0,AE FOLLOW-UP,,2013-08-20,2013-08-20
CDISCPILOT01,SV,01-706-1049,201.0,RETRIEVAL,168.0,2013-11-26,2013-11-26
CDISCPILOT01,SV,01-706-1384,1.0,SCREENING 1,-7.0,2012-08-25,2012-08-25
CDISCPILOT01,SV,01-706-1384,1.1,UNSCHEDULED 1.1,,2012-08-28,2012-08-28
CDISCPILOT01,SV,01-706-1384,2.0,SCREENING 2,-1.0,2012-09-12,2012-09-12
CDISCPILOT01,SV,01-706-1384,3.0,BASELINE,1.0,2012-09-15,2012-09-15
CDISCPILOT01,SV,01-706-1384,4.0,WEEK 2,14.0,2012-09-29,2012-09-29
CDISCPILOT01,SV,01-706-1384,201.0,RETRIEVAL,168.0,2013-06-22,2013-06-22
CDISCPILOT01,SV,01-707-1037,1.0,SCREENING 1,-7.0,2013-12-12,2013-12-12
CDISCPILOT01,SV,01-707-1037,2.0,SCREENING 2,-1.0,2013-12-18,2013-12-18
CDISCPILOT01,SV,01-707-1037,3.0,BASELINE,1.0,2013-12-20,2013-12-20
CDISCPILOT01,SV,01-707-1037,4.0,WEEK 2,14.0,2014-01-08,2014-01-08
CDISCPILOT01,SV,01-707-1206,1.0,SCREENING 1,-7.0,2013-10-20,2013-10-20
CDISCPILOT01,SV,01-707-1206,2.0,SCREENING 2,-1.0,2013-10-26,2013-10-26
CDISCPILOT01,SV,01-707-1206,3.0,BASELINE,1.0,2013-10-28,2013-10-28
CDISCPILOT01,SV,01-707-1206,3.5,AMBUL ECG PLACEMENT,13.0,2013-11-11,2013-11-11
CDISCPILOT01,SV,01-707-1206,4.0,WEEK 2,14.0,2013-11-12,2013-11-12
CDISCPILOT01,SV,01-707-1206,5.0,WEEK 4,28.0,2013-11-25,2013-11-25
CDISCPILOT01,SV,01-707-1206,6.0,AMBUL ECG REMOVAL,30.0,2013-11-27,2013-11-27
CDISCPILOT01,SV,01-707-1206,7.0,WEEK 6,42.0,2013-12-09,2013-12-09
CDISCPILOT01,SV,01-707-1206,8.0,WEEK 8,56.0,2013-12-23,2013-12-23
CDISCPILOT01,SV,01-707-1206,8.1,WEEK 10 (T),70.0,2014-01-05,2014-01-05
CDISCPILOT01,SV,01-707-1206,9.0,WEEK 12,84.0,2014-01-19,2014-01-19
CDISCPILOT01,SV,01-707-1206,9.1,WEEK 14 (T),98.0,2014-02-02,2014-02-02
CDISCPILOT01,SV,01-707-1206,10.0,WEEK 16,112.0,2014-02-16,2014-02-16
CDISCPILOT01,SV,01-707-1206,10.1,WEEK 18 (T),126.0,2014-03-01,2014-03-01
CDISCPILOT01,SV,01-707-1206,11.0,WEEK 20,140.0,2014-03-16,2014-03-16
CDISCPILOT01,SV,01-707-1206,11.1,WEEK 22 (T),154.0,2014-03-30,2014-03-30
CDISCPILOT01,SV,01-707-1206,12.0,WEEK 24,168.0,2014-04-13,2014-04-13
CDISCPILOT01,SV,01-707-1206,13.0,WEEK 26,182.0,2014-04-27,2014-04-27
CDISCPILOT01,SV,01-707-1276,1.0,SCREENING 1,-7.0,2012-10-12,2012-10-12
CDISCPILOT01,SV,01-707-1430,1.0,SCREENING 1,-7.0,2014-02-14,2014-02-14
CDISCPILOT01,SV,01-707-1434,1.0,SCREENING 1,-7.0,2013-07-25,2013-07-25
CDISCPILOT01,SV,01-708-1013,1.0,SCREENING 1,-7.0,2012-10-13,2012-10-13
CDISCPILOT01,SV,01-708-1019,1.0,SCREENING 1,-7.0,2013-12-10,2013-12-10
CDISCPILOT01,SV,01-708-1019,2.0,SCREENING 2,-1.0,2013-12-17,2013-12-17
CDISCPILOT01,SV,01-708-1019,3.0,BASELINE,1.0,2013-12-20,2013-12-20
CDISCPILOT01,SV,01-708-1019,4.0,WEEK 2,14.0,2014-01-23,2014-01-23
CDISCPILOT01,SV,01-708-1032,1.0,SCREENING 1,-7.0,2013-02-02,2013-02-02
CDISCPILOT01,SV,01-708-1032,2.0,SCREENING 2,-1.0,2013-02-07,2013-02-07
CDISCPILOT01,SV,01-708-1032,3.0,BASELINE,1.0,2013-02-09,2013-02-09
CDISCPILOT01,SV,01-708-1032,3.5,AMBUL ECG PLACEMENT,13.0,2013-02-22,2013-02-22
CDISCPILOT01,SV,01-708-1032,4.0,WEEK 2,14.0,2013-02-23,2013-02-23
CDISCPILOT01,SV,01-708-1032,5.0,WEEK 4,28.0,2013-03-09,2013-03-09
CDISCPILOT01,SV,01-708-1054,1.0,SCREENING 1,-7.0,2014-02-14,2014-02-14
CDISCPILOT01,SV,01-708-1067,1.0,SCREENING 1,-7.0,2013-02-07,2013-02-07
CDISCPILOT01,SV,01-708-1084,1.0,SCREENING 1,-7.0,2013-05-01,2013-05-01
CDISCPILOT01,SV,01-708-1084,2.0,SCREENING 2,-1.0,2013-05-06,2013-05-06
CDISCPILOT01,SV,01-708-1084,3.0,BASELINE,1.0,2013-05-09,2013-05-09
CDISCPILOT01,SV,01-708-1084,3.5,AMBUL ECG PLACEMENT,13.0,2013-05-23,2013-05-23
CDISCPILOT01,SV,01-708-1084,4.0,WEEK 2,14.0,2013-05-23,2013-05-23
CDISCPILOT01,SV,01-708-1084,5.0,WEEK 4,28.0,2013-06-09,2013-06-09
CDISCPILOT01,SV,01-708-1084,6.0,AMBUL ECG REMOVAL,30.0,2013-06-11,2013-06-11
CDISCPILOT01,SV,01-708-1084,7.0,WEEK 6,42.0,2013-06-23,2013-06-23
CDISCPILOT01,SV,01-708-1084,8.0,WEEK 8,56.0,2013-07-07,2013-07-07
CDISCPILOT01,SV,01-708-1084,8.1,WEEK 10 (T),70.0,2013-07-21,2013-07-21
CDISCPILOT01,SV,01-708-1084,9.0,WEEK 12,84.0,2013-08-01,2013-08-01
CDISCPILOT01,SV,01-708-1084,9.1,WEEK 14 (T),98.0,2013-08-19,2013-08-19
CDISCPILOT01,SV,01-708-1084,9.2,UNSCHEDULED 9.2,,2013-08-19,2013-08-19
CDISCPILOT01,SV,01-708-1084,10.0,WEEK 16,112.0,2013-09-01,2013-09-01
CDISCPILOT01,SV,01-708-1084,10.1,WEEK 18 (T),126.0,2013-09-15,2013-09-15
CDISCPILOT01,SV,01-708-1084,11.0,WEEK 20,140.0,2013-10-01,2013-10-01
CDISCPILOT01,SV,01-708-1084,11.1,WEEK 22 (T),154.0,2013-10-15,2013-10-15
CDISCPILOT01,SV,01-708-1084,12.0,WEEK 24,168.0,2013-10-28,2013-10-28
CDISCPILOT01,SV,01-708-1084,13.0,WEEK 26,182.0,2013-11-11,2013-11-11
CDISCPILOT01,SV,01-708-1087,1.0,SCREENING 1,-7.0,2012-10-06,2012-10-06
CDISCPILOT01,SV,01-708-1087,2.0,SCREENING 2,-1.0,2012-10-20,2012-10-20
CDISCPILOT01,SV,01-708-1087,3.0,BASELINE,1.0,2012-10-22,2012-10-22
CDISCPILOT01,SV,01-708-1087,3.5,AMBUL ECG PLACEMENT,13.0,2012-11-04,2012-11-04
CDISCPILOT01,SV,01-708-1087,4.0,WEEK 2,14.0,2012-11-05,2012-11-05
CDISCPILOT01,SV,01-708-1087,5.0,WEEK 4,28.0,2012-11-20,2012-11-20
CDISCPILOT01,SV,01-708-1087,6.0,AMBUL ECG REMOVAL,30.0,2012-11-25,2012-11-25
CDISCPILOT01,SV,01-708-1087,7.0,WEEK 6,42.0,2012-12-08,2012-12-08
CDISCPILOT01,SV,01-708-1087,8.0,WEEK 8,56.0,2012-12-22,2012-12-22
CDISCPILOT01,SV,01-708-1087,8.1,WEEK 10 (T),70.0,2013-01-05,2013-01-05
CDISCPILOT01,SV,01-708-1087,9.0,WEEK 12,84.0,2013-01-19,2013-01-19
CDISCPILOT01,SV,01-708-1087,9.1,WEEK 14 (T),98.0,2013-02-02,2013-02-02
CDISCPILOT01,SV,01-708-1087,10.0,WEEK 16,112.0,2013-02-16,2013-02-16
CDISCPILOT01,SV,01-708-1087,10.1,WEEK 18 (T),126.0,2013-03-02,2013-03-02
CDISCPILOT01,SV,01-708-1087,11.0,WEEK 20,140.0,2013-03-16,2013-03-16
CDISCPILOT01,SV,01-708-1087,11.1,WEEK 22 (T),154.0,2013-03-30,2013-03-30
CDISCPILOT01,SV,01-708-1087,12.0,WEEK 24,168.0,2013-04-10,2013-04-10
CDISCPILOT01,SV,01-708-1087,13.0,WEEK 26,182.0,2013-04-28,2013-04-28
CDISCPILOT01,SV,01-708-1104,1.0,SCREENING 1,-7.0,2014-01-23,2014-01-23
CDISCPILOT01,SV,01-708-1158,1.0,SCREENING 1,-7.0,2014-02-01,2014-02-01
CDISCPILOT01,SV,01-708-1158,1.1,UNSCHEDULED 1.1,,2014-02-01,2014-02-01
CDISCPILOT01,SV,01-708-1158,1.2,UNSCHEDULED 1.2,,2014-02-26,2014-02-26
CDISCPILOT01,SV,01-708-1158,2.0,SCREENING 2,-1.0,2014-02-06,2014-02-06
CDISCPILOT01,SV,01-708-1158,3.0,BASELINE,1.0,2014-02-08,2014-02-08
CDISCPILOT01,SV,01-708-1158,3.5,AMBUL ECG PLACEMENT,13.0,2014-02-25,2014-02-25
CDISCPILOT01,SV,01-708-1158,4.0,WEEK 2,14.0,2014-02-26,2014-02-26
CDISCPILOT01,SV,01-708-1158,5.0,WEEK 4,28.0,2014-03-06,2014-03-06
CDISCPILOT01,SV,01-708-1158,6.0,AMBUL ECG REMOVAL,30.0,2014-03-08,2014-03-08
CDISCPILOT01,SV,01-708-1158,7.0,WEEK 6,42.0,2014-03-22,2014-03-22
CDISCPILOT01,SV,01-708-1171,1.0,SCREENING 1,-7.0,2012-11-25,2012-11-25
CDISCPILOT01,SV,01-708-1171,2.0,SCREENING 2,-1.0,2012-12-02,2012-12-02
CDISCPILOT01,SV,01-708-1171,3.0,BASELINE,1.0,2012-12-06,2012-12-06
CDISCPILOT01,SV,01-708-1171,3.5,AMBUL ECG PLACEMENT,13.0,2012-12-17,2012-12-17
CDISCPILOT01,SV,01-708-1171,4.0,WEEK 2,14.0,2012-12-18,2012-12-18
CDISCPILOT01,SV,01-708-1171,5.0,WEEK 4,28.0,2012-12-31,2012-12-31
CDISCPILOT01,SV,01-708-1171,6.0,AMBUL ECG REMOVAL,30.0,2013-01-02,2013-01-02
CDISCPILOT01,SV,01-708-1171,7.0,WEEK 6,42.0,2013-01-14,2013-01-14
CDISCPILOT01,SV,01-708-1171,8.0,WEEK 8,56.0,2013-01-28,2013-01-28
CDISCPILOT01,SV,01-708-1171,8.1,WEEK 10 (T),70.0,2013-02-11,2013-02-11
CDISCPILOT01,SV,01-708-1171,9.0,WEEK 12,84.0,2013-02-25,2013-02-25
CDISCPILOT01,SV,01-708-1171,9.1,WEEK 14 (T),98.0,2013-03-11,2013-03-11
CDISCPILOT01,SV,01-708-1171,10.0,WEEK 16,112.0,2013-03-25,2013-03-25
CDISCPILOT01,SV,01-708-1171,10.1,WEEK 18 (T),126.0,2013-04-08,2013-04-08
CDISCPILOT01,SV,01-708-1171,11.0,WEEK 20,140.0,2013-04-22,2013-04-22
CDISCPILOT01,SV,01-708-1171,11.1,WEEK 22 (T),154.0,2013-05-02,2013-05-02
CDISCPILOT01,SV,01-708-1171,12.0,WEEK 24,168.0,2013-05-20,2013-05-20
CDISCPILOT01,SV,01-708-1171,13.0,WEEK 26,182.0,2013-06-04,2013-06-04
CDISCPILOT01,SV,01-708-1178,1.0,SCREENING 1,-7.0,2013-12-13,2013-12-13
CDISCPILOT01,SV,01-708-1178,1.1,UNSCHEDULED 1.1,,2013-12-19,2013-12-19
CDISCPILOT01,SV,01-708-1178,1.2,UNSCHEDULED 1.2,,2013-12-26,2013-12-26
CDISCPILOT01,SV,01-708-1178,2.0,SCREENING 2,-1.0,2013-12-19,2013-12-19
CDISCPILOT01,SV,01-708-1178,3.0,BASELINE,1.0,2013-12-29,2013-12-29
CDISCPILOT01,SV,01-708-1178,3.5,AMBUL ECG PLACEMENT,13.0,2014-01-09,2014-01-09
CDISCPILOT01,SV,01-708-1178,4.0,WEEK 2,14.0,2014-01-18,2014-01-18
CDISCPILOT01,SV,01-708-1178,5.0,WEEK 4,28.0,2014-02-02,2014-02-02
CDISCPILOT01,SV,01-708-1178,6.0,AMBUL ECG REMOVAL,30.0,2014-02-07,2014-02-07
CDISCPILOT01,SV,01-708-1178,7.0,WEEK 6,42.0,2014-02-23,2014-02-23
CDISCPILOT01,SV,01-708-1178,8.0,WEEK 8,56.0,2014-03-09,2014-03-09
CDISCPILOT01,SV,01-708-1178,8.1,WEEK 10 (T),70.0,2014-03-27,2014-03-27
CDISCPILOT01,SV,01-708-1178,9.0,WEEK 12,84.0,2014-04-06,2014-04-06
CDISCPILOT01,SV,01-708-1184,1.0,SCREENING 1,-7.0,2013-01-14,2013-01-14
CDISCPILOT01,SV,01-708-1213,1.0,SCREENING 1,-7.0,2013-02-01,2013-02-01
CDISCPILOT01,SV,01-708-1213,2.0,SCREENING 2,-1.0,2013-02-07,2013-02-07
CDISCPILOT01,SV,01-708-1213,3.0,BASELINE,1.0,2013-02-09,2013-02-09
CDISCPILOT01,SV,01-708-1213,4.0,WEEK 2,14.0,2013-02-22,2013-02-22
CDISCPILOT01,SV,01-708-1213,5.0,WEEK 4,28.0,2013-02-26,2013-02-26
CDISCPILOT01,SV,01-708-1216,1.0,SCREENING 1,-7.0,2012-10-14,2012-10-14
CDISCPILOT01,SV,01-708-1216,2.0,SCREENING 2,-1.0,2012-10-19,2012-10-19
CDISCPILOT01,SV,01-708-1216,3.0,BASELINE,1.0,2012-10-24,2012-10-24
CDISCPILOT01,SV,01-708-1216,3.5,AMBUL ECG PLACEMENT,13.0,2012-11-07,2012-11-07
CDISCPILOT01,SV,01-708-1216,4.0,WEEK 2,14.0,2012-11-08,2012-11-08
CDISCPILOT01,SV,01-708-1216,5.0,WEEK 4,28.0,2012-11-22,2012-11-22
CDISCPILOT01,SV,01-708-1216,6.0,AMBUL ECG REMOVAL,30.0,2012-11-24,2012-11-24
CDISCPILOT01,SV,01-708-1216,7.0,WEEK 6,42.0,2012-12-06,2012-12-06
CDISCPILOT01,SV,01-708-1216,101.0,AE FOLLOW-UP,,2013-01-09,2013-01-09
CDISCPILOT01,SV,01-708-1236,1.0,SCREENING 1,-7.0,2013-09-08,2013-09-08
CDISCPILOT01,SV,01-708-1236,1.1,UNSCHEDULED 1.1,,2013-09-19,2013-09-19
CDISCPILOT01,SV,01-708-1236,2.0,SCREENING 2,-1.0,2013-09-19,2013-09-19
CDISCPILOT01,SV,01-708-1236,3.0,BASELINE,1.0,2013-09-21,2013-09-21
CDISCPILOT01,SV,01-708-1236,4.0,WEEK 2,14.0,2013-09-26,2013-09-26
CDISCPILOT01,SV,01-708-1242,1.0,SCREENING 1,-7.0,2012-08-13,2012-08-13
CDISCPILOT01,SV,01-708-1253,1.0,SCREENING 1,-7.0,2013-04-26,2013-04-26
CDISCPILOT01,SV,01-708-1253,2.0,SCREENING 2,-1.0,2013-05-05,2013-05-05
CDISCPILOT01,SV,01-708-1253,3.0,BASELINE,1.0,2013-05-07,2013-05-07
CDISCPILOT01,SV,01-708-1253,3.5,AMBUL ECG PLACEMENT,13.0,2013-05-20,2013-05-20
CDISCPILOT01,SV,01-708-1253,4.0,WEEK 2,14.0,2013-05-21,2013-05-21
CDISCPILOT01,SV,01-708-1253,4.1,UNSCHEDULED 4.1,,2013-05-21,2013-05-21
CDISCPILOT01,SV,01-708-1253,5.0,WEEK 4,28.0,2013-06-07,2013-06-07
CDISCPILOT01,SV,01-708-1253,6.0,AMBUL ECG REMOVAL,30.0,2013-06-09,2013-06-09
CDISCPILOT01,SV,01-708-1253,7.0,WEEK 6,42.0,2013-06-25,2013-06-25
CDISCPILOT01,SV,01-708-1253,8.0,WEEK 8,56.0,2013-07-09,2013-07-09
CDISCPILOT01,SV,01-708-1253,8.1,WEEK 10 (T),70.0,2013-07-26,2013-07-26
CDISCPILOT01,SV,01-708-1253,9.0,WEEK 12,84.0,2013-08-05,2013-08-05
CDISCPILOT01,SV,01-708-1253,9.1,WEEK 14 (T),98.0,2013-08-20,2013-08-20
CDISCPILOT01,SV,01-708-1253,10.0,WEEK 16,112.0,2013-09-02,2013-09-02
CDISCPILOT01,SV,01-708-1253,10.1,WEEK 18 (T),126.0,2013-09-16,2013-09-16
CDISCPILOT01,SV,01-708-1253,11.0,WEEK 20,140.0,2013-09-29,2013-09-29
CDISCPILOT01,SV,01-708-1253,11.1,WEEK 22 (T),154.0,2013-10-13,2013-10-13
CDISCPILOT01,SV,01-708-1253,12.0,WEEK 24,168.0,2013-10-27,2013-10-27
CDISCPILOT01,SV,01-708-1253,13.0,WEEK 26,182.0,2013-11-05,2013-11-05
CDISCPILOT01,SV,01-708-1272,1.0,SCREENING 1,-7.0,2013-01-22,2013-01-22
CDISCPILOT01,SV,01-708-1272,2.0,SCREENING 2,-1.0,2013-01-30,2013-01-30
CDISCPILOT01,SV,01-708-1272,3.0,BASELINE,1.0,2013-02-06,2013-02-06
CDISCPILOT01,SV,01-708-1272,3.5,AMBUL ECG PLACEMENT,13.0,2013-02-19,2013-02-19
CDISCPILOT01,SV,01-708-1272,4.0,WEEK 2,14.0,2013-02-21,2013-02-21
CDISCPILOT01,SV,01-708-1272,5.0,WEEK 4,28.0,2013-03-07,2013-03-07
CDISCPILOT01,SV,01-708-1272,6.0,AMBUL ECG REMOVAL,30.0,2013-03-09,2013-03-09
CDISCPILOT01,SV,01-708-1272,7.0,WEEK 6,42.0,2013-03-20,2013-03-20
CDISCPILOT01,SV,01-708-1272,8.0,WEEK 8,56.0,2013-04-04,2013-04-04
CDISCPILOT01,SV,01-708-1286,1.0,SCREENING 1,-7.0,2013-08-25,2013-08-25
CDISCPILOT01,SV,01-708-1286,2.0,SCREENING 2,-1.0,2013-09-08,2013-09-08
CDISCPILOT01,SV,01-708-1286,3.0,BASELINE,1.0,2013-09-10,2013-09-10
CDISCPILOT01,SV,01-708-1286,3.5,AMBUL ECG PLACEMENT,13.0,2013-09-22,2013-09-22
CDISCPILOT01,SV,01-708-1286,4.0,WEEK 2,14.0,2013-09-23,2013-09-23
CDISCPILOT01,SV,01-708-1286,5.0,WEEK 4,28.0,2013-10-07,2013-10-07
CDISCPILOT01,SV,01-708-1286,6.0,AMBUL ECG REMOVAL,30.0,2013-10-09,2013-10-09
CDISCPILOT01,SV,01-708-1286,7.0,WEEK 6,42.0,2013-10-20,2013-10-20
CDISCPILOT01,SV,01-708-1286,8.0,WEEK 8,56.0,2013-11-03,2013-11-03
CDISCPILOT01,SV,01-708-1286,8.1,WEEK 10 (T),70.0,2013-11-17,2013-11-17
CDISCPILOT01,SV,01-708-1286,9.0,WEEK 12,84.0,2013-12-01,2013-12-01
CDISCPILOT01,SV,01-708-1286,9.1,WEEK 14 (T),98.0,2013-12-17,2013-12-17
CDISCPILOT01,SV,01-708-1286,10.0,WEEK 16,112.0,2013-12-29,2013-12-29
CDISCPILOT01,SV,01-708-1286,10.1,WEEK 18 (T),126.0,2014-01-18,2014-01-18
CDISCPILOT01,SV,01-708-1286,11.0,WEEK 20,140.0,2014-02-01,2014-02-01
CDISCPILOT01,SV,01-708-1286,11.1,WEEK 22 (T),154.0,2014-02-17,2014-02-17
CDISCPILOT01,SV,01-708-1286,12.0,WEEK 24,168.0,2014-02-23,2014-02-23
CDISCPILOT01,SV,01-708-1286,13.0,WEEK 26,182.0,2014-03-08,2014-03-08
CDISCPILOT01,SV,01-708-1296,1.0,SCREENING 1,-7.0,2013-06-07,2013-06-07
CDISCPILOT01,SV,01-708-1296,2.0,SCREENING 2,-1.0,2013-06-12,2013-06-12
CDISCPILOT01,SV,01-708-1296,3.0,BASELINE,1.0,2013-06-14,2013-06-14
CDISCPILOT01,SV,01-708-1296,3.5,AMBUL ECG PLACEMENT,13.0,2013-06-26,2013-06-26
CDISCPILOT01,SV,01-708-1296,4.0,WEEK 2,14.0,2013-06-27,2013-06-27
CDISCPILOT01,SV,01-708-1296,5.0,WEEK 4,28.0,2013-07-10,2013-07-10
CDISCPILOT01,SV,01-708-1296,6.0,AMBUL ECG REMOVAL,30.0,2013-07-12,2013-07-12
CDISCPILOT01,SV,01-708-1296,7.0,WEEK 6,42.0,2013-07-24,2013-07-24
CDISCPILOT01,SV,01-708-1296,8.0,WEEK 8,56.0,2013-08-07,2013-08-07
CDISCPILOT01,SV,01-708-1296,8.1,WEEK 10 (T),70.0,2013-08-20,2013-08-20
CDISCPILOT01,SV,01-708-1296,9.0,WEEK 12,84.0,2013-09-04,2013-09-04
CDISCPILOT01,SV,01-708-1296,9.1,WEEK 14 (T),98.0,2013-09-18,2013-09-18
CDISCPILOT01,SV,01-708-1296,10.0,WEEK 16,112.0,2013-10-02,2013-10-02
CDISCPILOT01,SV,01-708-1296,10.1,WEEK 18 (T),126.0,2013-10-21,2013-10-21
CDISCPILOT01,SV,01-708-1296,11.0,WEEK 20,140.0,2013-10-30,2013-10-30
CDISCPILOT01,SV,01-708-1296,11.1,WEEK 22 (T),154.0,2013-11-14,2013-11-14
CDISCPILOT01,SV,01-708-1296,12.0,WEEK 24,168.0,2013-11-27,2013-11-27
CDISCPILOT01,SV,01-708-1296,13.0,WEEK 26,182.0,2013-12-12,2013-12-12
CDISCPILOT01,SV,01-708-1297,1.0,SCREENING 1,-7.0,2013-01-15,2013-01-15
CDISCPILOT01,SV,01-708-1297,2.0,SCREENING 2,-1.0,2013-01-23,2013-01-23
CDISCPILOT01,SV,01-708-1297,3.0,BASELINE,1.0,2013-01-25,2013-01-25
CDISCPILOT01,SV,01-708-1297,3.5,AMBUL ECG PLACEMENT,13.0,2013-02-07,2013-02-07
CDISCPILOT01,SV,01-708-1297,4.0,WEEK 2,14.0,2013-02-08,2013-02-08
CDISCPILOT01,SV,01-708-1297,5.0,WEEK 4,28.0,2013-02-20,2013-02-20
CDISCPILOT01,SV,01-708-1297,6.0,AMBUL ECG REMOVAL,30.0,2013-02-22,2013-02-22
CDISCPILOT01,SV,01-708-1297,7.0,WEEK 6,42.0,2013-03-06,2013-03-06
CDISCPILOT01,SV,01-708-1297,8.0,WEEK 8,56.0,2013-03-19,2013-03-19
CDISCPILOT01,SV,01-708-1297,8.1,WEEK 10 (T),70.0,2013-04-02,2013-04-02
CDISCPILOT01,SV,01-708-1297,9.0,WEEK 12,84.0,2013-04-16,2013-04-16
CDISCPILOT01,SV,01-708-1297,9.1,WEEK 14 (T),98.0,2013-04-30,2013-04-30
CDISCPILOT01,SV,01-708-1297,10.0,WEEK 16,112.0,2013-05-08,2013-05-08
CDISCPILOT01,SV,01-708-1297,101.0,AE FOLLOW-UP,,2013-06-07,2013-06-07
CDISCPILOT01,SV,01-708-1316,1.0,SCREENING 1,-7.0,2013-08-15,2013-08-15
CDISCPILOT01,SV,01-708-1316,2.0,SCREENING 2,-1.0,2013-08-22,2013-08-22
CDISCPILOT01,SV,01-708-1316,3.0,BASELINE,1.0,2013-08-23,2013-08-23
CDISCPILOT01,SV,01-708-1316,4.0,WEEK 2,14.0,2013-09-05,2013-09-05
CDISCPILOT01,SV,01-708-1316,5.0,WEEK 4,28.0,2013-09-22,2013-09-22
CDISCPILOT01,SV,01-708-1316,7.0,WEEK 6,42.0,2013-10-10,2013-10-10
CDISCPILOT01,SV,01-708-1316,8.0,WEEK 8,56.0,2013-10-25,2013-10-25
CDISCPILOT01,SV,01-708-1316,8.1,WEEK 10 (T),70.0,2013-11-08,2013-11-08
CDISCPILOT01,SV,01-708-1316,9.0,WEEK 12,84.0,2013-11-22,2013-11-22
CDISCPILOT01,SV,01-708-1316,9.1,WEEK 14 (T),98.0,2013-12-06,2013-12-06
CDISCPILOT01,SV,01-708-1316,10.0,WEEK 16,112.0,2013-12-21,2013-12-21
CDISCPILOT01,SV,01-708-1316,10.1,WEEK 18 (T),126.0,2014-01-05,2014-01-05
CDISCPILOT01,SV,01-708-1316,11.0,WEEK 20,140.0,2014-01-18,2014-01-18
CDISCPILOT01,SV,01-708-1316,11.1,WEEK 22 (T),154.0,2014-02-07,2014-02-07
CDISCPILOT01,SV,01-708-1316,12.0,WEEK 24,168.0,2014-02-15,2014-02-15
CDISCPILOT01,SV,01-708-1316,13.0,WEEK 26,182.0,2014-03-01,2014-03-01
CDISCPILOT01,SV,01-708-1336,1.0,SCREENING 1,-7.0,2012-11-21,2012-11-21
CDISCPILOT01,SV,01-708-1336,2.0,SCREENING 2,-1.0,2012-12-05,2012-12-05
CDISCPILOT01,SV,01-708-1336,3.0,BASELINE,1.0,2012-12-07,2012-12-07
CDISCPILOT01,SV,01-708-1336,3.5,AMBUL ECG PLACEMENT,13.0,2012-12-20,2012-12-20
CDISCPILOT01,SV,01-708-1336,4.0,WEEK 2,14.0,2012-12-21,2012-12-21
CDISCPILOT01,SV,01-708-1336,5.0,WEEK 4,28.0,2013-01-01,2013-01-01
CDISCPILOT01,SV,01-708-1336,6.0,AMBUL ECG REMOVAL,30.0,2013-01-03,2013-01-03
CDISCPILOT01,SV,01-708-1336,7.0,WEEK 6,42.0,2013-01-15,2013-01-15
CDISCPILOT01,SV,01-708-1336,8.0,WEEK 8,56.0,2013-01-29,2013-01-29
CDISCPILOT01,SV,01-708-1336,8.1,WEEK 10 (T),70.0,2013-02-08,2013-02-08
CDISCPILOT01,SV,01-708-1336,9.0,WEEK 12,84.0,2013-02-27,2013-02-27
CDISCPILOT01,SV,01-708-1336,9.1,WEEK 14 (T),98.0,2013-03-13,2013-03-13
CDISCPILOT01,SV,01-708-1336,10.0,WEEK 16,112.0,2013-03-27,2013-03-27
CDISCPILOT01,SV,01-708-1336,10.1,WEEK 18 (T),126.0,2013-04-10,2013-04-10
CDISCPILOT01,SV,01-708-1336,11.0,WEEK 20,140.0,2013-04-23,2013-04-23
CDISCPILOT01,SV,01-708-1336,11.1,WEEK 22 (T),154.0,2013-05-07,2013-05-07
CDISCPILOT01,SV,01-708-1336,12.0,WEEK 24,168.0,2013-05-22,2013-05-22
CDISCPILOT01,SV,01-708-1336,13.0,WEEK 26,182.0,2013-06-05,2013-06-05
CDISCPILOT01,SV,01-708-1336,101.0,AE FOLLOW-UP,,2013-07-05,2013-07-05
CDISCPILOT01,SV,01-708-1342,1.0,SCREENING 1,-7.0,2012-12-21,2012-12-21
CDISCPILOT01,SV,01-708-1342,2.0,SCREENING 2,-1.0,2012-12-27,2012-12-27
CDISCPILOT01,SV,01-708-1342,3.0,BASELINE,1.0,2012-12-29,2012-12-29
CDISCPILOT01,SV,01-708-1342,3.5,AMBUL ECG PLACEMENT,13.0,2013-01-11,2013-01-11
CDISCPILOT01,SV,01-708-1342,4.0,WEEK 2,14.0,2013-01-12,2013-01-12
CDISCPILOT01,SV,01-708-1342,5.0,WEEK 4,28.0,2013-01-24,2013-01-24
CDISCPILOT01,SV,01-708-1342,6.0,AMBUL ECG REMOVAL,30.0,2013-01-26,2013-01-26
CDISCPILOT01,SV,01-708-1342,7.0,WEEK 6,42.0,2013-02-07,2013-02-07
CDISCPILOT01,SV,01-708-1342,8.0,WEEK 8,56.0,2013-02-23,2013-02-23
CDISCPILOT01,SV,01-708-1342,8.1,WEEK 10 (T),70.0,2013-03-12,2013-03-12
CDISCPILOT01,SV,01-708-1342,9.0,WEEK 12,84.0,2013-03-21,2013-03-21
CDISCPILOT01,SV,01-708-1342,9.1,WEEK 14 (T),98.0,2013-04-05,2013-04-05
CDISCPILOT01,SV,01-708-1342,10.0,WEEK 16,112.0,2013-04-20,2013-04-20
CDISCPILOT01,SV,01-708-1342,10.1,WEEK 18 (T),126.0,2013-05-04,2013-05-04
CDISCPILOT01,SV,01-708-1342,11.0,WEEK 20,140.0,2013-05-18,2013-05-18
CDISCPILOT01,SV,01-708-1342,11.1,WEEK 22 (T),154.0,2013-06-04,2013-06-04
CDISCPILOT01,SV,01-708-1342,12.0,WEEK 24,168.0,2013-06-15,2013-06-15
CDISCPILOT01,SV,01-708-1342,13.0,WEEK 26,182.0,2013-06-28,2013-06-28
CDISCPILOT01,SV,01-708-1347,1.0,SCREENING 1,-7.0,2013-04-11,2013-04-11
CDISCPILOT01,SV,01-708-1347,2.0,SCREENING 2,-1.0,2013-04-18,2013-04-18
CDISCPILOT01,SV,01-708-1347,3.0,BASELINE,1.0,2013-04-20,2013-04-20
CDISCPILOT01,SV,01-708-1347,3.5,AMBUL ECG PLACEMENT,13.0,2013-05-03,2013-05-03
CDISCPILOT01,SV,01-708-1347,4.0,WEEK 2,14.0,2013-05-04,2013-05-04
CDISCPILOT01,SV,01-708-1347,5.0,WEEK 4,28.0,2013-05-16,2013-05-16
CDISCPILOT01,SV,01-708-1347,6.0,AMBUL ECG REMOVAL,30.0,2013-05-18,2013-05-18
CDISCPILOT01,SV,01-708-1347,7.0,WEEK 6,42.0,2013-05-30,2013-05-30
CDISCPILOT01,SV,01-708-1347,8.0,WEEK 8,56.0,2013-06-13,2013-06-13
CDISCPILOT01,SV,01-708-1347,9.0,WEEK 12,84.0,2013-06-18,2013-06-18
CDISCPILOT01,SV,01-708-1347,101.0,AE FOLLOW-UP,,2013-08-02,2013-08-02
CDISCPILOT01,SV,01-708-1348,1.0,SCREENING 1,-7.0,2013-07-28,2013-07-28
CDISCPILOT01,SV,01-708-1348,1.1,UNSCHEDULED 1.1,,2013-08-03,2013-08-03
CDISCPILOT01,SV,01-708-1348,1.2,UNSCHEDULED 1.2,,2013-07-27,2013-07-27
CDISCPILOT01,SV,01-708-1348,2.0,SCREENING 2,-1.0,2013-08-03,2013-08-03
CDISCPILOT01,SV,01-708-1348,3.0,BASELINE,1.0,2013-08-05,2013-08-05
CDISCPILOT01,SV,01-708-1348,3.5,AMBUL ECG PLACEMENT,13.0,2013-08-18,2013-08-18
CDISCPILOT01,SV,01-708-1348,4.0,WEEK 2,14.0,2013-08-19,2013-08-19
CDISCPILOT01,SV,01-708-1348,5.0,WEEK 4,28.0,2013-08-31,2013-08-31
CDISCPILOT01,SV,01-708-1348,5.1,UNSCHEDULED 5.1,,2013-09-02,2013-09-02
CDISCPILOT01,SV,01-708-1348,6.0,AMBUL ECG REMOVAL,30.0,2013-09-02,2013-09-02
CDISCPILOT01,SV,01-708-1348,7.0,WEEK 6,42.0,2013-09-15,2013-09-15
CDISCPILOT01,SV,01-708-1348,8.0,WEEK 8,56.0,2013-10-06,2013-10-06
CDISCPILOT01,SV,01-708-1348,8.1,WEEK 10 (T),70.0,2013-10-21,2013-10-21
CDISCPILOT01,SV,01-708-1348,9.0,WEEK 12,84.0,2013-11-04,2013-11-04
CDISCPILOT01,SV,01-708-1348,9.1,WEEK 14 (T),98.0,2013-11-18,2013-11-18
CDISCPILOT01,SV,01-708-1348,10.0,WEEK 16,112.0,2013-12-01,2013-12-01
CDISCPILOT01,SV,01-708-1348,10.1,WEEK 18 (T),126.0,2013-12-19,2013-12-19
CDISCPILOT01,SV,01-708-1348,11.0,WEEK 20,140.0,2013-12-28,2013-12-28
CDISCPILOT01,SV,01-708-1348,11.1,WEEK 22 (T),154.0,2014-01-16,2014-01-16
CDISCPILOT01,SV,01-708-1348,12.0,WEEK 24,168.0,2014-02-03,2014-02-03
CDISCPILOT01,SV,01-708-1348,12.1,UNSCHEDULED 12.1,,2014-02-03,2014-02-03
CDISCPILOT01,SV,01-708-1348,13.0,WEEK 26,182.0,2014-02-13,2014-02-13
CDISCPILOT01,SV,01-708-1352,1.0,SCREENING 1,-7.0,2013-09-16,2013-09-16
CDISCPILOT01,SV,01-708-1353,1.0,SCREENING 1,-7.0,2013-06-17,2013-06-17
CDISCPILOT01,SV,01-708-1353,2.0,SCREENING 2,-1.0,2013-07-02,2013-07-02
CDISCPILOT01,SV,01-708-1353,3.0,BASELINE,1.0,2013-07-04,2013-07-04
CDISCPILOT01,SV,01-708-1353,3.5,AMBUL ECG PLACEMENT,13.0,2013-07-17,2013-07-17
CDISCPILOT01,SV,01-708-1353,4.0,WEEK 2,14.0,2013-07-18,2013-07-18
CDISCPILOT01,SV,01-708-1353,5.0,WEEK 4,28.0,2013-08-04,2013-08-04
CDISCPILOT01,SV,01-708-1353,6.0,AMBUL ECG REMOVAL,30.0,2013-08-07,2013-08-07
CDISCPILOT01,SV,01-708-1353,7.0,WEEK 6,42.0,2013-08-18,2013-08-18
CDISCPILOT01,SV,01-708-1353,8.0,WEEK 8,56.0,2013-09-10,2013-09-10
CDISCPILOT01,SV,01-708-1372,1.0,SCREENING 1,-7.0,2013-04-03,2013-04-03
CDISCPILOT01,SV,01-708-1372,2.0,SCREENING 2,-1.0,2013-04-10,2013-04-10
CDISCPILOT01,SV,01-708-1372,3.0,BASELINE,1.0,2013-04-12,2013-04-12
CDISCPILOT01,SV,01-708-1372,4.0,WEEK 2,14.0,2013-05-10,2013-05-10
CDISCPILOT01,SV,01-708-1378,1.0,SCREENING 1,-7.0,2013-08-24,2013-08-24
CDISCPILOT01,SV,01-708-1378,2.0,SCREENING 2,-1.0,2013-09-01,2013-09-01
CDISCPILOT01,SV,01-708-1378,3.0,BASELINE,1.0,2013-09-03,2013-09-03
CDISCPILOT01,SV,01-708-1378,3.5,AMBUL ECG PLACEMENT,13.0,2013-09-20,2013-09-20
CDISCPILOT01,SV,01-708-1378,4.0,WEEK 2,14.0,2013-09-21,2013-09-21
CDISCPILOT01,SV,01-708-1378,5.0,WEEK 4,28.0,2013-10-05,2013-10-05
CDISCPILOT01,SV,01-708-1378,7.0,WEEK 6,42.0,2013-10-19,2013-10-19
CDISCPILOT01,SV,01-708-1378,8.0,WEEK 8,56.0,2013-11-05,2013-11-05
CDISCPILOT01,SV,01-708-1378,8.1,WEEK 10 (T),70.0,2013-11-19,2013-11-19
CDISCPILOT01,SV,01-708-1378,9.0,WEEK 12,84.0,2013-12-02,2013-12-02
CDISCPILOT01,SV,01-708-1378,10.0,WEEK 16,112.0,2014-01-12,2014-01-12
CDISCPILOT01,SV,01-708-1378,10.1,WEEK 18 (T),126.0,2014-01-12,2014-01-12
CDISCPILOT01,SV,01-708-1378,11.0,WEEK 20,140.0,2014-01-28,2014-01-28
CDISCPILOT01,SV,01-708-1406,1.0,SCREENING 1,-7.0,2013-12-06,2013-12-06
CDISCPILOT01,SV,01-708-1406,2.0,SCREENING 2,-1.0,2013-12-24,2013-12-24
CDISCPILOT01,SV,01-708-1406,3.0,BASELINE,1.0,2013-12-26,2013-12-26
CDISCPILOT01,SV,01-708-1406,3.5,AMBUL ECG PLACEMENT,13.0,2014-01-08,2014-01-08
CDISCPILOT01,SV,01-708-1406,4.0,WEEK 2,14.0,2014-01-09,2014-01-09
CDISCPILOT01,SV,01-708-1406,5.0,WEEK 4,28.0,2014-01-22,2014-01-22
CDISCPILOT01,SV,01-708-1406,6.0,AMBUL ECG REMOVAL,30.0,2014-01-24,2014-01-24
CDISCPILOT01,SV,01-708-1406,7.0,WEEK 6,42.0,2014-02-10,2014-02-10
CDISCPILOT01,SV,01-708-1406,8.0,WEEK 8,56.0,2014-02-24,2014-02-24
CDISCPILOT01,SV,01-708-1406,8.1,WEEK 10 (T),70.0,2014-03-11,2014-03-11
CDISCPILOT01,SV,01-708-1406,9.0,WEEK 12,84.0,2014-03-19,2014-03-19
CDISCPILOT01,SV,01-708-1406,9.1,WEEK 14 (T),98.0,2014-04-07,2014-04-07
CDISCPILOT01,SV,01-708-1406,10.0,WEEK 16,112.0,2014-04-16,2014-04-16
CDISCPILOT01,SV,01-708-1406,10.1,WEEK 18 (T),126.0,2014-05-06,2014-05-06
CDISCPILOT01,SV,01-708-1406,11.0,WEEK 20,140.0,2014-05-16,2014-05-16
CDISCPILOT01,SV,01-708-1406,11.1,WEEK 22 (T),154.0,2014-05-13,2014-05-13
CDISCPILOT01,SV,01-708-1406,12.0,WEEK 24,168.0,2014-06-16,2014-06-16
CDISCPILOT01,SV,01-708-1406,13.0,WEEK 26,182.0,2014-07-02,2014-07-02
CDISCPILOT01,SV,01-708-1428,1.0,SCREENING 1,-7.0,2013-11-02,2013-11-02
CDISCPILOT01,SV,01-708-1428,2.0,SCREENING 2,-1.0,2013-11-07,2013-11-07
CDISCPILOT01,SV,01-708-1428,3.0,BASELINE,1.0,2013-11-09,2013-11-09
CDISCPILOT01,SV,01-708-1428,3.5,AMBUL ECG PLACEMENT,13.0,2013-11-22,2013-11-22
CDISCPILOT01,SV,01-708-1428,4.0,WEEK 2,14.0,2013-11-23,2013-11-23
CDISCPILOT01,SV,01-708-1428,5.0,WEEK 4,28.0,2013-12-10,2013-12-10
CDISCPILOT01,SV,01-708-1428,6.0,AMBUL ECG REMOVAL,30.0,2013-12-12,2013-12-12
CDISCPILOT01,SV,01-708-1428,7.0,WEEK 6,42.0,2013-12-26,2013-12-26
CDISCPILOT01,SV,01-708-1428,8.0,WEEK 8,56.0,2014-01-31,2014-01-31
CDISCPILOT01,SV,01-708-1428,101.0,AE FOLLOW-UP,,2014-01-31,2014-01-31
CDISCPILOT01,SV,01-709-1001,1.0,SCREENING 1,-7.0,2013-09-20,2013-09-20
CDISCPILOT01,SV,01-709-1001,1.1,UNSCHEDULED 1.1,,2013-10-06,2013-10-06
CDISCPILOT01,SV,01-709-1001,2.0,SCREENING 2,-1.0,2013-10-06,2013-10-06
CDISCPILOT01,SV,01-709-1001,3.0,BASELINE,1.0,2013-10-08,2013-10-08
CDISCPILOT01,SV,01-709-1001,3.5,AMBUL ECG PLACEMENT,13.0,2013-10-21,2013-10-21
CDISCPILOT01,SV,01-709-1001,4.0,WEEK 2,14.0,2013-10-22,2013-10-22
CDISCPILOT01,SV,01-709-1001,5.0,WEEK 4,28.0,2013-11-02,2013-11-02
CDISCPILOT01,SV,01-709-1001,6.0,AMBUL ECG REMOVAL,30.0,2013-11-04,2013-11-04
CDISCPILOT01,SV,01-709-1001,7.0,WEEK 6,42.0,2013-11-19,2013-11-19
CDISCPILOT01,SV,01-709-1001,8.0,WEEK 8,56.0,2013-12-03,2013-12-03
CDISCPILOT01,SV,01-709-1001,8.1,WEEK 10 (T),70.0,2013-12-14,2013-12-14
CDISCPILOT01,SV,01-709-1001,9.0,WEEK 12,84.0,2013-12-31,2013-12-31
CDISCPILOT01,SV,01-709-1001,9.1,WEEK 14 (T),98.0,2014-01-11,2014-01-11
CDISCPILOT01,SV,01-709-1001,10.0,WEEK 16,112.0,2014-01-28,2014-01-28
CDISCPILOT01,SV,01-709-1001,10.1,WEEK 18 (T),126.0,2014-02-11,2014-02-11
CDISCPILOT01,SV,01-709-1001,11.0,WEEK 20,140.0,2014-02-25,2014-02-25
CDISCPILOT01,SV,01-709-1001,11.1,WEEK 22 (T),154.0,2014-03-07,2014-03-07
CDISCPILOT01,SV,01-709-1001,12.0,WEEK 24,168.0,2014-03-17,2014-03-17
CDISCPILOT01,SV,01-709-1001,13.0,WEEK 26,182.0,2014-04-08,2014-04-08
CDISCPILOT01,SV,01-709-1007,1.0,SCREENING 1,-7.0,2012-07-21,2012-07-21
CDISCPILOT01,SV,01-709-1007,1.1,UNSCHEDULED 1.1,,2012-07-21,2012-07-21
CDISCPILOT01,SV,01-709-1007,2.0,SCREENING 2,-1.0,2012-07-29,2012-07-29
CDISCPILOT01,SV,01-709-1007,3.0,BASELINE,1.0,2012-07-31,2012-07-31
CDISCPILOT01,SV,01-709-1007,3.5,AMBUL ECG PLACEMENT,13.0,2012-08-17,2012-08-17
CDISCPILOT01,SV,01-709-1007,4.0,WEEK 2,14.0,2012-08-18,2012-08-18
CDISCPILOT01,SV,01-709-1007,5.0,WEEK 4,28.0,2012-09-01,2012-09-01
CDISCPILOT01,SV,01-709-1007,101.0,AE FOLLOW-UP,,2012-09-07,2012-09-07
CDISCPILOT01,SV,01-709-1020,1.0,SCREENING 1,-7.0,2012-11-22,2012-11-22
CDISCPILOT01,SV,01-709-1020,2.0,SCREENING 2,-1.0,2012-11-29,2012-11-29
CDISCPILOT01,SV,01-709-1020,3.0,BASELINE,1.0,2012-12-01,2012-12-01
CDISCPILOT01,SV,01-709-1020,4.0,WEEK 2,14.0,2012-12-15,2012-12-15
CDISCPILOT01,SV,01-709-1020,5.0,WEEK 4,28.0,2012-12-27,2012-12-27
CDISCPILOT01,SV,01-709-1020,7.0,WEEK 6,42.0,2013-01-12,2013-01-12
CDISCPILOT01,SV,01-709-1020,8.0,WEEK 8,56.0,2013-01-26,2013-01-26
CDISCPILOT01,SV,01-709-1020,8.1,WEEK 10 (T),70.0,2013-02-09,2013-02-09
CDISCPILOT01,SV,01-709-1020,9.0,WEEK 12,84.0,2013-02-23,2013-02-23
CDISCPILOT01,SV,01-709-1020,9.1,WEEK 14 (T),98.0,2013-03-08,2013-03-08
CDISCPILOT01,SV,01-709-1020,10.0,WEEK 16,112.0,2013-03-23,2013-03-23
CDISCPILOT01,SV,01-709-1020,10.1,WEEK 18 (T),126.0,2013-04-13,2013-04-13
CDISCPILOT01,SV,01-709-1020,11.0,WEEK 20,140.0,2013-04-20,2013-04-20
CDISCPILOT01,SV,01-709-1020,11.1,WEEK 22 (T),154.0,2013-05-03,2013-05-03
CDISCPILOT01,SV,01-709-1020,12.0,WEEK 24,168.0,2013-05-18,2013-05-18
CDISCPILOT01,SV,01-709-1020,13.0,WEEK 26,182.0,2013-06-01,2013-06-01
CDISCPILOT01,SV,01-709-1029,1.0,SCREENING 1,-7.0,2012-12-10,2012-12-10
CDISCPILOT01,SV,01-709-1029,2.0,SCREENING 2,-1.0,2012-12-23,2012-12-23
CDISCPILOT01,SV,01-709-1029,3.0,BASELINE,1.0,2012-12-25,2012-12-25
CDISCPILOT01,SV,01-709-1029,3.5,AMBUL ECG PLACEMENT,13.0,2013-01-08,2013-01-08
CDISCPILOT01,SV,01-709-1029,4.0,WEEK 2,14.0,2013-01-09,2013-01-09
CDISCPILOT01,SV,01-709-1029,5.0,WEEK 4,28.0,2013-01-21,2013-01-21
CDISCPILOT01,SV,01-709-1029,6.0,AMBUL ECG REMOVAL,30.0,2013-01-23,2013-01-23
CDISCPILOT01,SV,01-709-1029,7.0,WEEK 6,42.0,2013-02-06,2013-02-06
CDISCPILOT01,SV,01-709-1029,8.0,WEEK 8,56.0,2013-02-19,2013-02-19
CDISCPILOT01,SV,01-709-1029,8.1,WEEK 10 (T),70.0,2013-03-06,2013-03-06
CDISCPILOT01,SV,01-709-1029,9.0,WEEK 12,84.0,2013-03-20,2013-03-20
CDISCPILOT01,SV,01-709-1029,9.1,WEEK 14 (T),98.0,2013-04-06,2013-04-06
CDISCPILOT01,SV,01-709-1029,10.0,WEEK 16,112.0,2013-04-16,2013-04-16
CDISCPILOT01,SV,01-709-1029,10.1,WEEK 18 (T),126.0,2013-05-01,2013-05-01
CDISCPILOT01,SV,01-709-1029,11.0,WEEK 20,140.0,2013-05-15,2013-05-15
CDISCPILOT01,SV,01-709-1029,11.1,WEEK 22 (T),154.0,2013-05-28,2013-05-28
CDISCPILOT01,SV,01-709-1029,12.0,WEEK 24,168.0,2013-06-12,2013-06-12
CDISCPILOT01,SV,01-709-1029,13.0,WEEK 26,182.0,2013-06-26,2013-06-26
CDISCPILOT01,SV,01-709-1081,1.0,SCREENING 1,-7.0,2014-01-09,2014-01-09
CDISCPILOT01,SV,01-709-1081,1.1,UNSCHEDULED 1.1,,2014-01-05,2014-01-05
CDISCPILOT01,SV,01-709-1081,2.0,SCREENING 2,-1.0,2014-01-17,2014-01-17
CDISCPILOT01,SV,01-709-1081,3.0,BASELINE,1.0,2014-01-18,2014-01-18
CDISCPILOT01,SV,01-709-1081,3.5,AMBUL ECG PLACEMENT,13.0,2014-01-31,2014-01-31
CDISCPILOT01,SV,01-709-1081,4.0,WEEK 2,14.0,2014-02-01,2014-02-01
CDISCPILOT01,SV,01-709-1081,5.0,WEEK 4,28.0,2014-02-10,2014-02-10
CDISCPILOT01,SV,01-709-1081,6.0,AMBUL ECG REMOVAL,30.0,2014-02-12,2014-02-12
CDISCPILOT01,SV,01-709-1081,7.0,WEEK 6,42.0,2014-03-01,2014-03-01
CDISCPILOT01,SV,01-709-1081,8.0,WEEK 8,56.0,2014-03-15,2014-03-15
CDISCPILOT01,SV,01-709-1081,8.1,WEEK 10 (T),70.0,2014-03-29,2014-03-29
CDISCPILOT01,SV,01-709-1081,9.0,WEEK 12,84.0,2014-04-21,2014-04-21
CDISCPILOT01,SV,01-709-1081,9.1,WEEK 14 (T),98.0,2014-04-26,2014-04-26
CDISCPILOT01,SV,01-709-1081,10.0,WEEK 16,112.0,2014-05-10,2014-05-10
CDISCPILOT01,SV,01-709-1088,1.0,SCREENING 1,-7.0,2014-03-30,2014-03-30
CDISCPILOT01,SV,01-709-1088,2.0,SCREENING 2,-1.0,2014-04-10,2014-04-10
CDISCPILOT01,SV,01-709-1088,3.0,BASELINE,1.0,2014-04-12,2014-04-12
CDISCPILOT01,SV,01-709-1088,3.5,AMBUL ECG PLACEMENT,13.0,2014-04-25,2014-04-25
CDISCPILOT01,SV,01-709-1088,4.0,WEEK 2,14.0,2014-04-26,2014-04-26
CDISCPILOT01,SV,01-709-1088,5.0,WEEK 4,28.0,2014-05-08,2014-05-08
CDISCPILOT01,SV,01-709-1088,6.0,AMBUL ECG REMOVAL,30.0,2014-05-10,2014-05-10
CDISCPILOT01,SV,01-709-1088,7.0,WEEK 6,42.0,2014-05-22,2014-05-22
CDISCPILOT01,SV,01-709-1088,8.0,WEEK 8,56.0,2014-06-01,2014-06-01
CDISCPILOT01,SV,01-709-1088,8.1,WEEK 10 (T),70.0,2014-06-15,2014-06-15
CDISCPILOT01,SV,01-709-1088,9.0,WEEK 12,84.0,2014-06-29,2014-06-29
CDISCPILOT01,SV,01-709-1088,9.1,WEEK 14 (T),98.0,2014-07-10,2014-07-10
CDISCPILOT01,SV,01-709-1088,10.0,WEEK 16,112.0,2014-08-02,2014-08-02
CDISCPILOT01,SV,01-709-1088,10.1,WEEK 18 (T),126.0,2014-08-17,2014-08-17
CDISCPILOT01,SV,01-709-1088,11.0,WEEK 20,140.0,2014-08-23,2014-08-23
CDISCPILOT01,SV,01-709-1088,11.1,WEEK 22 (T),154.0,2014-09-06,2014-09-06
CDISCPILOT01,SV,01-709-1088,12.0,WEEK 24,168.0,2014-09-27,2014-09-27
CDISCPILOT01,SV,01-709-1088,13.0,WEEK 26,182.0,2014-10-09,2014-10-09
CDISCPILOT01,SV,01-709-1099,1.0,SCREENING 1,-7.0,2013-10-14,2013-10-14
CDISCPILOT01,SV,01-709-1099,2.0,SCREENING 2,-1.0,2013-10-23,2013-10-23
CDISCPILOT01,SV,01-709-1099,3.0,BASELINE,1.0,2013-10-25,2013-10-25
CDISCPILOT01,SV,01-709-1099,3.5,AMBUL ECG PLACEMENT,13.0,2013-11-11,2013-11-11
CDISCPILOT01,SV,01-709-1099,4.0,WEEK 2,14.0,2013-11-12,2013-11-12
CDISCPILOT01,SV,01-709-1099,5.0,WEEK 4,28.0,2013-11-27,2013-11-27
CDISCPILOT01,SV,01-709-1099,6.0,AMBUL ECG REMOVAL,30.0,2013-11-29,2013-11-29
CDISCPILOT01,SV,01-709-1099,7.0,WEEK 6,42.0,2013-12-11,2013-12-11
CDISCPILOT01,SV,01-709-1099,8.0,WEEK 8,56.0,2013-12-26,2013-12-26
CDISCPILOT01,SV,01-709-1099,8.1,WEEK 10 (T),70.0,2014-01-08,2014-01-08
CDISCPILOT01,SV,01-709-1099,9.0,WEEK 12,84.0,2014-01-20,2014-01-20
CDISCPILOT01,SV,01-709-1099,9.1,WEEK 14 (T),98.0,2014-02-03,2014-02-03
CDISCPILOT01,SV,01-709-1099,10.0,WEEK 16,112.0,2014-02-14,2014-02-14
CDISCPILOT01,SV,01-709-1099,10.1,WEEK 18 (T),126.0,2014-02-24,2014-02-24
CDISCPILOT01,SV,01-709-1099,11.0,WEEK 20,140.0,2014-03-14,2014-03-14
CDISCPILOT01,SV,01-709-1099,11.1,WEEK 22 (T),154.0,2014-03-25,2014-03-25
CDISCPILOT01,SV,01-709-1099,12.0,WEEK 24,168.0,2014-04-11,2014-04-11
CDISCPILOT01,SV,01-709-1099,13.0,WEEK 26,182.0,2014-04-25,2014-04-25
CDISCPILOT01,SV,01-709-1102,1.0,SCREENING 1,-7.0,2013-01-07,2013-01-07
CDISCPILOT01,SV,01-709-1102,1.1,UNSCHEDULED 1.1,,2013-01-13,2013-01-13
CDISCPILOT01,SV,01-709-1102,2.0,SCREENING 2,-1.0,2013-01-13,2013-01-13
CDISCPILOT01,SV,01-709-1102,3.0,BASELINE,1.0,2013-01-15,2013-01-15
CDISCPILOT01,SV,01-709-1102,3.5,AMBUL ECG PLACEMENT,13.0,2013-01-30,2013-01-30
CDISCPILOT01,SV,01-709-1102,4.0,WEEK 2,14.0,2013-01-31,2013-01-31
CDISCPILOT01,SV,01-709-1102,5.0,WEEK 4,28.0,2013-02-11,2013-02-11
CDISCPILOT01,SV,01-709-1102,6.0,AMBUL ECG REMOVAL,30.0,2013-02-13,2013-02-13
CDISCPILOT01,SV,01-709-1102,7.0,WEEK 6,42.0,2013-02-27,2013-02-27
CDISCPILOT01,SV,01-709-1102,8.0,WEEK 8,56.0,2013-03-12,2013-03-12
CDISCPILOT01,SV,01-709-1102,9.0,WEEK 12,84.0,2013-03-31,2013-03-31
CDISCPILOT01,SV,01-709-1102,101.0,AE FOLLOW-UP,,2013-05-12,2013-05-12
CDISCPILOT01,SV,01-709-1168,1.0,SCREENING 1,-7.0,2013-07-25,2013-07-25
CDISCPILOT01,SV,01-709-1168,2.0,SCREENING 2,-1.0,2013-07-31,2013-07-31
CDISCPILOT01,SV,01-709-1168,3.0,BASELINE,1.0,2013-08-02,2013-08-02
CDISCPILOT01,SV,01-709-1168,3.5,AMBUL ECG PLACEMENT,13.0,2013-08-16,2013-08-16
CDISCPILOT01,SV,01-709-1168,4.0,WEEK 2,14.0,2013-08-17,2013-08-17
CDISCPILOT01,SV,01-709-1168,5.0,WEEK 4,28.0,2013-08-30,2013-08-30
CDISCPILOT01,SV,01-709-1168,7.0,WEEK 6,42.0,2013-09-13,2013-09-13
CDISCPILOT01,SV,01-709-1168,8.0,WEEK 8,56.0,2013-09-27,2013-09-27
CDISCPILOT01,SV,01-709-1168,101.0,AE FOLLOW-UP,,2013-11-01,2013-11-01
CDISCPILOT01,SV,01-709-1217,1.0,SCREENING 1,-7.0,2013-02-16,2013-02-16
CDISCPILOT01,SV,01-709-1217,2.0,SCREENING 2,-1.0,2013-03-02,2013-03-02
CDISCPILOT01,SV,01-709-1217,3.0,BASELINE,1.0,2013-03-04,2013-03-04
CDISCPILOT01,SV,01-709-1217,3.5,AMBUL ECG PLACEMENT,13.0,2013-03-18,2013-03-18
CDISCPILOT01,SV,01-709-1217,4.0,WEEK 2,14.0,2013-03-19,2013-03-19
CDISCPILOT01,SV,01-709-1217,5.0,WEEK 4,28.0,2013-03-30,2013-03-30
CDISCPILOT01,SV,01-709-1217,6.0,AMBUL ECG REMOVAL,30.0,2013-04-01,2013-04-01
CDISCPILOT01,SV,01-709-1217,7.0,WEEK 6,42.0,2013-04-13,2013-04-13
CDISCPILOT01,SV,01-709-1217,8.0,WEEK 8,56.0,2013-04-29,2013-04-29
CDISCPILOT01,SV,01-709-1217,8.1,WEEK 10 (T),70.0,2013-05-13,2013-05-13
CDISCPILOT01,SV,01-709-1217,9.0,WEEK 12,84.0,2013-05-25,2013-05-25
CDISCPILOT01,SV,01-709-1217,9.1,WEEK 14 (T),98.0,2013-06-11,2013-06-11
CDISCPILOT01,SV,01-709-1217,10.0,WEEK 16,112.0,2013-06-25,2013-06-25
CDISCPILOT01,SV,01-709-1224,1.0,SCREENING 1,-7.0,2013-11-18,2013-11-18
CDISCPILOT01,SV,01-709-1237,1.0,SCREENING 1,-7.0,2014-01-17,2014-01-17
CDISCPILOT01,SV,01-709-1238,1.0,SCREENING 1,-7.0,2013-05-02,2013-05-02
CDISCPILOT01,SV,01-709-1238,2.0,SCREENING 2,-1.0,2013-05-13,2013-05-13
CDISCPILOT01,SV,01-709-1238,3.0,BASELINE,1.0,2013-05-15,2013-05-15
CDISCPILOT01,SV,01-709-1238,3.5,AMBUL ECG PLACEMENT,13.0,2013-05-28,2013-05-28
CDISCPILOT01,SV,01-709-1238,4.0,WEEK 2,14.0,2013-05-29,2013-05-29
CDISCPILOT01,SV,01-709-1238,5.0,WEEK 4,28.0,2013-06-19,2013-06-19
CDISCPILOT01,SV,01-709-1238,6.0,AMBUL ECG REMOVAL,30.0,2013-06-25,2013-06-25
CDISCPILOT01,SV,01-709-1238,7.0,WEEK 6,42.0,2013-06-26,2013-06-26
CDISCPILOT01,SV,01-709-1238,8.0,WEEK 8,56.0,2013-07-02,2013-07-02
CDISCPILOT01,SV,01-709-1238,8.1,WEEK 10 (T),70.0,2013-07-24,2013-07-24
CDISCPILOT01,SV,01-709-1238,9.0,WEEK 12,84.0,2013-08-07,2013-08-07
CDISCPILOT01,SV,01-709-1238,101.0,AE FOLLOW-UP,,2013-08-13,2013-08-13
CDISCPILOT01,SV,01-709-1259,1.0,SCREENING 1,-7.0,2013-01-13,2013-01-13
CDISCPILOT01,SV,01-709-1259,2.0,SCREENING 2,-1.0,2013-01-24,2013-01-24
CDISCPILOT01,SV,01-709-1259,3.0,BASELINE,1.0,2013-01-26,2013-01-26
CDISCPILOT01,SV,01-709-1259,3.5,AMBUL ECG PLACEMENT,13.0,2013-02-09,2013-02-09
CDISCPILOT01,SV,01-709-1259,4.0,WEEK 2,14.0,2013-02-10,2013-02-10
CDISCPILOT01,SV,01-709-1259,5.0,WEEK 4,28.0,2013-02-22,2013-02-22
CDISCPILOT01,SV,01-709-1259,6.0,AMBUL ECG REMOVAL,30.0,2013-02-24,2013-02-24
CDISCPILOT01,SV,01-709-1259,7.0,WEEK 6,42.0,2013-03-08,2013-03-08
CDISCPILOT01,SV,01-709-1259,8.0,WEEK 8,56.0,2013-03-23,2013-03-23
CDISCPILOT01,SV,01-709-1259,8.1,WEEK 10 (T),70.0,2013-04-05,2013-04-05
CDISCPILOT01,SV,01-709-1259,9.0,WEEK 12,84.0,2013-04-20,2013-04-20
CDISCPILOT01,SV,01-709-1259,9.1,WEEK 14 (T),98.0,2013-05-03,2013-05-03
CDISCPILOT01,SV,01-709-1259,10.0,WEEK 16,112.0,2013-05-11,2013-05-11
CDISCPILOT01,SV,01-709-1259,10.1,WEEK 18 (T),126.0,2013-05-25,2013-05-25
CDISCPILOT01,SV,01-709-1259,11.0,WEEK 20,140.0,2013-06-13,2013-06-13
CDISCPILOT01,SV,01-709-1285,1.0,SCREENING 1,-7.0,2013-03-17,2013-03-17
CDISCPILOT01,SV,01-709-1285,2.0,SCREENING 2,-1.0,2013-03-22,2013-03-22
CDISCPILOT01,SV,01-709-1285,3.0,BASELINE,1.0,2013-03-24,2013-03-24
CDISCPILOT01,SV,01-709-1285,3.5,AMBUL ECG PLACEMENT,13.0,2013-04-07,2013-04-07
CDISCPILOT01,SV,01-709-1285,4.0,WEEK 2,14.0,2013-04-08,2013-04-08
CDISCPILOT01,SV,01-709-1285,5.0,WEEK 4,28.0,2013-04-19,2013-04-19
CDISCPILOT01,SV,01-709-1285,6.0,AMBUL ECG REMOVAL,30.0,2013-04-21,2013-04-21
CDISCPILOT01,SV,01-709-1285,7.0,WEEK 6,42.0,2013-05-03,2013-05-03
CDISCPILOT01,SV,01-709-1285,8.0,WEEK 8,56.0,2013-05-19,2013-05-19
CDISCPILOT01,SV,01-709-1285,9.0,WEEK 12,84.0,2013-05-31,2013-05-31
CDISCPILOT01,SV,01-709-1301,1.0,SCREENING 1,-7.0,2013-07-14,2013-07-14
CDISCPILOT01,SV,01-709-1301,1.1,UNSCHEDULED 1.1,,2013-07-14,2013-07-14
CDISCPILOT01,SV,01-709-1301,2.0,SCREENING 2,-1.0,2013-07-17,2013-07-17
CDISCPILOT01,SV,01-709-1301,3.0,BASELINE,1.0,2013-07-19,2013-07-19
CDISCPILOT01,SV,01-709-1301,3.5,AMBUL ECG PLACEMENT,13.0,2013-08-01,2013-08-01
CDISCPILOT01,SV,01-709-1301,4.0,WEEK 2,14.0,2013-08-02,2013-08-02
CDISCPILOT01,SV,01-709-1301,5.0,WEEK 4,28.0,2013-08-11,2013-08-11
CDISCPILOT01,SV,01-709-1301,6.0,AMBUL ECG REMOVAL,30.0,2013-08-13,2013-08-13
CDISCPILOT01,SV,01-709-1301,7.0,WEEK 6,42.0,2013-08-30,2013-08-30
CDISCPILOT01,SV,01-709-1301,8.0,WEEK 8,56.0,2013-09-13,2013-09-13
CDISCPILOT01,SV,01-709-1301,8.1,WEEK 10 (T),70.0,2013-09-29,2013-09-29
CDISCPILOT01,SV,01-709-1301,9.0,WEEK 12,84.0,2013-10-13,2013-10-13
CDISCPILOT01,SV,01-709-1301,9.1,WEEK 14 (T),98.0,2013-10-25,2013-10-25
CDISCPILOT01,SV,01-709-1301,10.0,WEEK 16,112.0,2013-11-08,2013-11-08
CDISCPILOT01,SV,01-709-1301,10.1,WEEK 18 (T),126.0,2013-11-22,2013-11-22
CDISCPILOT01,SV,01-709-1301,11.0,WEEK 20,140.0,2013-12-06,2013-12-06
CDISCPILOT01,SV,01-709-1301,11.1,WEEK 22 (T),154.0,2013-12-20,2013-12-20
CDISCPILOT01,SV,01-709-1301,12.0,WEEK 24,168.0,2014-01-04,2014-01-04
CDISCPILOT01,SV,01-709-1301,13.0,WEEK 26,182.0,2014-01-17,2014-01-17
CDISCPILOT01,SV,01-709-1306,1.0,SCREENING 1,-7.0,2014-01-19,2014-01-19
CDISCPILOT01,SV,01-709-1306,2.0,SCREENING 2,-1.0,2014-02-01,2014-02-01
CDISCPILOT01,SV,01-709-1306,3.0,BASELINE,1.0,2014-02-03,2014-02-03
CDISCPILOT01,SV,01-709-1306,3.5,AMBUL ECG PLACEMENT,13.0,2014-02-18,2014-02-18
CDISCPILOT01,SV,01-709-1306,4.0,WEEK 2,14.0,2014-02-19,2014-02-19
CDISCPILOT01,SV,01-709-1306,5.0,WEEK 4,28.0,2014-03-02,2014-03-02
CDISCPILOT01,SV,01-709-1306,6.0,AMBUL ECG REMOVAL,30.0,2014-03-04,2014-03-04
CDISCPILOT01,SV,01-709-1306,7.0,WEEK 6,42.0,2014-03-19,2014-03-19
CDISCPILOT01,SV,01-709-1306,8.0,WEEK 8,56.0,2014-04-02,2014-04-02
CDISCPILOT01,SV,01-709-1306,8.1,WEEK 10 (T),70.0,2014-04-13,2014-04-13
CDISCPILOT01,SV,01-709-1306,9.0,WEEK 12,84.0,2014-04-30,2014-04-30
CDISCPILOT01,SV,01-709-1306,9.1,WEEK 14 (T),98.0,2014-05-14,2014-05-14
CDISCPILOT01,SV,01-709-1306,10.0,WEEK 16,112.0,2014-05-28,2014-05-28
CDISCPILOT01,SV,01-709-1306,10.1,WEEK 18 (T),126.0,2014-06-09,2014-06-09
CDISCPILOT01,SV,01-709-1306,11.0,WEEK 20,140.0,2014-06-25,2014-06-25
CDISCPILOT01,SV,01-709-1309,1.0,SCREENING 1,-7.0,2013-06-09,2013-06-09
CDISCPILOT01,SV,01-709-1309,1.1,UNSCHEDULED 1.1,,2013-06-09,2013-06-09
CDISCPILOT01,SV,01-709-1309,2.0,SCREENING 2,-1.0,2013-06-17,2013-06-17
CDISCPILOT01,SV,01-709-1309,3.0,BASELINE,1.0,2013-06-19,2013-06-19
CDISCPILOT01,SV,01-709-1309,3.5,AMBUL ECG PLACEMENT,13.0,2013-06-30,2013-06-30
CDISCPILOT01,SV,01-709-1309,4.0,WEEK 2,14.0,2013-07-01,2013-07-01
CDISCPILOT01,SV,01-709-1309,5.0,WEEK 4,28.0,2013-07-16,2013-07-16
CDISCPILOT01,SV,01-709-1309,6.0,AMBUL ECG REMOVAL,30.0,2013-07-18,2013-07-18
CDISCPILOT01,SV,01-709-1309,7.0,WEEK 6,42.0,2013-07-31,2013-07-31
CDISCPILOT01,SV,01-709-1309,8.0,WEEK 8,56.0,2013-08-15,2013-08-15
CDISCPILOT01,SV,01-709-1309,8.1,WEEK 10 (T),70.0,2013-08-29,2013-08-29
CDISCPILOT01,SV,01-709-1309,9.0,WEEK 12,84.0,2013-09-11,2013-09-11
CDISCPILOT01,SV,01-709-1309,9.1,WEEK 14 (T),98.0,2013-09-23,2013-09-23
CDISCPILOT01,SV,01-709-1309,10.0,WEEK 16,112.0,2013-10-16,2013-10-16
CDISCPILOT01,SV,01-709-1309,10.1,WEEK 18 (T),126.0,2013-10-28,2013-10-28
CDISCPILOT01,SV,01-709-1309,11.0,WEEK 20,140.0,2013-11-07,2013-11-07
CDISCPILOT01,SV,01-709-1309,11.1,WEEK 22 (T),154.0,2013-11-25,2013-11-25
CDISCPILOT01,SV,01-709-1309,12.0,WEEK 24,168.0,2013-12-05,2013-12-05
CDISCPILOT01,SV,01-709-1309,13.0,WEEK 26,182.0,2013-12-19,2013-12-19
CDISCPILOT01,SV,01-709-1312,1.0,SCREENING 1,-7.0,2014-04-13,2014-04-13
CDISCPILOT01,SV,01-709-1312,1.1,UNSCHEDULED 1.1,,2014-04-18,2014-04-18
CDISCPILOT01,SV,01-709-1312,2.0,SCREENING 2,-1.0,2014-04-18,2014-04-18
CDISCPILOT01,SV,01-709-1312,3.0,BASELINE,1.0,2014-04-20,2014-04-20
CDISCPILOT01,SV,01-709-1312,4.0,WEEK 2,14.0,2014-05-10,2014-05-10
CDISCPILOT01,SV,01-709-1312,5.0,WEEK 4,28.0,2014-05-17,2014-05-17
CDISCPILOT01,SV,01-709-1312,6.0,AMBUL ECG REMOVAL,30.0,2014-05-19,2014-05-19
CDISCPILOT01,SV,01-709-1312,7.0,WEEK 6,42.0,2014-06-02,2014-06-02
CDISCPILOT01,SV,01-709-1312,8.0,WEEK 8,56.0,2014-06-13,2014-06-13
CDISCPILOT01,SV,01-709-1312,8.1,WEEK 10 (T),70.0,2014-07-03,2014-07-03
CDISCPILOT01,SV,01-709-1312,9.0,WEEK 12,84.0,2014-07-13,2014-07-13
CDISCPILOT01,SV,01-709-1312,9.1,WEEK 14 (T),98.0,2014-07-25,2014-07-25
CDISCPILOT01,SV,01-709-1312,10.0,WEEK 16,112.0,2014-08-10,2014-08-10
CDISCPILOT01,SV,01-709-1312,10.1,WEEK 18 (T),126.0,2014-08-28,2014-08-28
CDISCPILOT01,SV,01-709-1312,11.0,WEEK 20,140.0,2014-09-07,2014-09-07
CDISCPILOT01,SV,01-709-1312,11.1,WEEK 22 (T),154.0,2014-09-14,2014-09-14
CDISCPILOT01,SV,01-709-1312,12.0,WEEK 24,168.0,2014-10-05,2014-10-05
CDISCPILOT01,SV,01-709-1312,13.0,WEEK 26,182.0,2014-10-19,2014-10-19
CDISCPILOT01,SV,01-709-1326,1.0,SCREENING 1,-7.0,2013-03-21,2013-03-21
CDISCPILOT01,SV,01-709-1326,2.0,SCREENING 2,-1.0,2013-04-03,2013-04-03
CDISCPILOT01,SV,01-709-1326,3.0,BASELINE,1.0,2013-04-05,2013-04-05
CDISCPILOT01,SV,01-709-1326,3.5,AMBUL ECG PLACEMENT,13.0,2013-04-17,2013-04-17
CDISCPILOT01,SV,01-709-1326,4.0,WEEK 2,14.0,2013-04-18,2013-04-18
CDISCPILOT01,SV,01-709-1326,5.0,WEEK 4,28.0,2013-05-01,2013-05-01
CDISCPILOT01,SV,01-709-1326,6.0,AMBUL ECG REMOVAL,30.0,2013-05-03,2013-05-03
CDISCPILOT01,SV,01-709-1326,7.0,WEEK 6,42.0,2013-05-18,2013-05-18
CDISCPILOT01,SV,01-709-1326,8.0,WEEK 8,56.0,2013-06-01,2013-06-01
CDISCPILOT01,SV,01-709-1326,8.1,WEEK 10 (T),70.0,2013-06-12,2013-06-12
CDISCPILOT01,SV,01-709-1326,9.0,WEEK 12,84.0,2013-06-26,2013-06-26
CDISCPILOT01,SV,01-709-1326,9.1,WEEK 14 (T),98.0,2013-07-11,2013-07-11
CDISCPILOT01,SV,01-709-1326,10.0,WEEK 16,112.0,2013-07-26,2013-07-26
CDISCPILOT01,SV,01-709-1326,10.1,WEEK 18 (T),126.0,2013-08-07,2013-08-07
CDISCPILOT01,SV,01-709-1326,11.0,WEEK 20,140.0,2013-08-21,2013-08-21
CDISCPILOT01,SV,01-709-1326,11.1,WEEK 22 (T),154.0,2013-09-05,2013-09-05
CDISCPILOT01,SV,01-709-1326,12.0,WEEK 24,168.0,2013-09-20,2013-09-20
CDISCPILOT01,SV,01-709-1326,13.0,WEEK 26,182.0,2013-10-02,2013-10-02
CDISCPILOT01,SV,01-709-1329,1.0,SCREENING 1,-7.0,2013-08-01,2013-08-01
CDISCPILOT01,SV,01-709-1329,1.1,UNSCHEDULED 1.1,,2013-08-13,2013-08-13
CDISCPILOT01,SV,01-709-1329,2.0,SCREENING 2,-1.0,2013-08-13,2013-08-13
CDISCPILOT01,SV,01-709-1329,3.0,BASELINE,1.0,2013-08-15,2013-08-15
CDISCPILOT01,SV,01-709-1329,4.0,WEEK 2,14.0,2013-08-29,2013-08-29
CDISCPILOT01,SV,01-709-1339,1.0,SCREENING 1,-7.0,2012-12-15,2012-12-15
CDISCPILOT01,SV,01-709-1339,2.0,SCREENING 2,-1.0,2012-12-21,2012-12-21
CDISCPILOT01,SV,01-709-1339,3.0,BASELINE,1.0,2012-12-23,2012-12-23
CDISCPILOT01,SV,01-709-1339,3.5,AMBUL ECG PLACEMENT,13.0,2013-01-04,2013-01-04
CDISCPILOT01,SV,01-709-1339,4.0,WEEK 2,14.0,2013-01-05,2013-01-05
CDISCPILOT01,SV,01-709-1339,5.0,WEEK 4,28.0,2013-01-20,2013-01-20
CDISCPILOT01,SV,01-709-1339,6.0,AMBUL ECG REMOVAL,30.0,2013-01-22,2013-01-22
CDISCPILOT01,SV,01-709-1339,7.0,WEEK 6,42.0,2013-02-03,2013-02-03
CDISCPILOT01,SV,01-709-1339,8.0,WEEK 8,56.0,2013-02-19,2013-02-19
CDISCPILOT01,SV,01-709-1339,8.1,WEEK 10 (T),70.0,2013-03-09,2013-03-09
CDISCPILOT01,SV,01-709-1339,9.0,WEEK 12,84.0,2013-03-17,2013-03-17
CDISCPILOT01,SV,01-709-1339,9.1,WEEK 14 (T),98.0,2013-03-31,2013-03-31
CDISCPILOT01,SV,01-709-1339,10.0,WEEK 16,112.0,2013-04-14,2013-04-14
CDISCPILOT01,SV,01-709-1339,10.1,WEEK 18 (T),126.0,2013-04-28,2013-04-28
CDISCPILOT01,SV,01-709-1339,11.0,WEEK 20,140.0,2013-05-12,2013-05-12
CDISCPILOT01,SV,01-709-1339,11.1,WEEK 22 (T),154.0,2013-05-25,2013-05-25
CDISCPILOT01,SV,01-709-1339,12.0,WEEK 24,168.0,2013-06-08,2013-06-08
CDISCPILOT01,SV,01-709-1339,13.0,WEEK 26,182.0,2013-06-24,2013-06-24
CDISCPILOT01,SV,01-709-1424,1.0,SCREENING 1,-7.0,2013-02-15,2013-02-15
CDISCPILOT01,SV,01-709-1424,2.0,SCREENING 2,-1.0,2013-03-01,2013-03-01
CDISCPILOT01,SV,01-709-1424,3.0,BASELINE,1.0,2013-03-03,2013-03-03
CDISCPILOT01,SV,01-709-1424,4.0,WEEK 2,14.0,2013-03-08,2013-03-08
CDISCPILOT01,SV,01-709-1424,4.1,UNSCHEDULED 4.1,,2013-03-17,2013-03-17
CDISCPILOT01,SV,01-709-1424,101.0,AE FOLLOW-UP,,2013-03-17,2013-03-17
CDISCPILOT01,SV,01-710-1002,1.0,SCREENING 1,-7.0,2013-12-30,2013-12-30
CDISCPILOT01,SV,01-710-1002,1.1,UNSCHEDULED 1.1,,2013-12-31,2013-12-31
CDISCPILOT01,SV,01-710-1002,2.0,SCREENING 2,-1.0,2014-01-12,2014-01-12
CDISCPILOT01,SV,01-710-1002,3.0,BASELINE,1.0,2014-01-14,2014-01-14
CDISCPILOT01,SV,01-710-1002,4.0,WEEK 2,14.0,2014-01-18,2014-01-18
CDISCPILOT01,SV,01-710-1002,101.0,AE FOLLOW-UP,,2014-01-20,2014-01-20
CDISCPILOT01,SV,01-710-1006,1.0,SCREENING 1,-7.0,2013-01-27,2013-01-27
CDISCPILOT01,SV,01-710-1006,2.0,SCREENING 2,-1.0,2013-02-08,2013-02-08
CDISCPILOT01,SV,01-710-1006,3.0,BASELINE,1.0,2013-02-10,2013-02-10
CDISCPILOT01,SV,01-710-1006,3.5,AMBUL ECG PLACEMENT,13.0,2013-02-21,2013-02-21
CDISCPILOT01,SV,01-710-1006,4.0,WEEK 2,14.0,2013-02-22,2013-02-22
CDISCPILOT01,SV,01-710-1006,5.0,WEEK 4,28.0,2013-03-08,2013-03-08
CDISCPILOT01,SV,01-710-1006,6.0,AMBUL ECG REMOVAL,30.0,2013-03-10,2013-03-10
CDISCPILOT01,SV,01-710-1006,7.0,WEEK 6,42.0,2013-03-23,2013-03-23
CDISCPILOT01,SV,01-710-1006,8.0,WEEK 8,56.0,2013-04-06,2013-04-06
CDISCPILOT01,SV,01-710-1006,8.1,WEEK 10 (T),70.0,2013-04-20,2013-04-20
CDISCPILOT01,SV,01-710-1006,9.0,WEEK 12,84.0,2013-05-04,2013-05-04
CDISCPILOT01,SV,01-710-1006,9.1,WEEK 14 (T),98.0,2013-05-18,2013-05-18
CDISCPILOT01,SV,01-710-1006,9.2,UNSCHEDULED 9.2,,2013-05-18,2013-05-18
CDISCPILOT01,SV,01-710-1006,10.0,WEEK 16,112.0,2013-06-01,2013-06-01
CDISCPILOT01,SV,01-710-1006,10.1,WEEK 18 (T),126.0,2013-06-15,2013-06-15
CDISCPILOT01,SV,01-710-1006,11.0,WEEK 20,140.0,2013-06-29,2013-06-29
CDISCPILOT01,SV,01-710-1006,11.1,WEEK 22 (T),154.0,2013-07-13,2013-07-13
CDISCPILOT01,SV,01-710-1006,11.2,UNSCHEDULED 11.2,,2013-07-13,2013-07-13
CDISCPILOT01,SV,01-710-1006,12.0,WEEK 24,168.0,2013-07-27,2013-07-27
CDISCPILOT01,SV,01-710-1006,13.0,WEEK 26,182.0,2013-08-10,2013-08-10
CDISCPILOT01,SV,01-710-1021,1.0,SCREENING 1,-7.0,2013-09-19,2013-09-19
CDISCPILOT01,SV,01-710-1021,2.0,SCREENING 2,-1.0,2013-09-25,2013-09-25
CDISCPILOT01,SV,01-710-1021,3.0,BASELINE,1.0,2013-09-27,2013-09-27
CDISCPILOT01,SV,01-710-1021,3.5,AMBUL ECG PLACEMENT,13.0,2013-10-10,2013-10-10
CDISCPILOT01,SV,01-710-1021,4.0,WEEK 2,14.0,2013-10-11,2013-10-11
CDISCPILOT01,SV,01-710-1021,5.0,WEEK 4,28.0,2013-10-27,2013-10-27
CDISCPILOT01,SV,01-710-1021,6.0,AMBUL ECG REMOVAL,30.0,2013-10-29,2013-10-29
CDISCPILOT01,SV,01-710-1021,7.0,WEEK 6,42.0,2013-11-12,2013-11-12
CDISCPILOT01,SV,01-710-1021,101.0,AE FOLLOW-UP,,2013-11-22,2013-11-22
CDISCPILOT01,SV,01-710-1027,1.0,SCREENING 1,-7.0,2014-02-03,2014-02-03
CDISCPILOT01,SV,01-710-1027,2.0,SCREENING 2,-1.0,2014-02-27,2014-02-27
CDISCPILOT01,SV,01-710-1027,3.0,BASELINE,1.0,2014-02-28,2014-02-28
CDISCPILOT01,SV,01-710-1027,4.0,WEEK 2,14.0,2014-03-14,2014-03-14
CDISCPILOT01,SV,01-710-1027,5.0,WEEK 4,28.0,2014-03-28,2014-03-28
CDISCPILOT01,SV,01-710-1027,7.0,WEEK 6,42.0,2014-04-11,2014-04-11
CDISCPILOT01,SV,01-710-1027,8.0,WEEK 8,56.0,2014-04-24,2014-04-24
CDISCPILOT01,SV,01-710-1027,8.1,WEEK 10 (T),70.0,2014-05-08,2014-05-08
CDISCPILOT01,SV,01-710-1027,9.0,WEEK 12,84.0,2014-05-23,2014-05-23
CDISCPILOT01,SV,01-710-1027,9.1,WEEK 14 (T),98.0,2014-06-06,2014-06-06
CDISCPILOT01,SV,01-710-1027,10.0,WEEK 16,112.0,2014-06-20,2014-06-20
CDISCPILOT01,SV,01-710-1027,10.1,WEEK 18 (T),126.0,2014-07-04,2014-07-04
CDISCPILOT01,SV,01-710-1027,11.0,WEEK 20,140.0,2014-07-17,2014-07-17
CDISCPILOT01,SV,01-710-1027,11.1,WEEK 22 (T),154.0,2014-07-31,2014-07-31
CDISCPILOT01,SV,01-710-1027,12.0,WEEK 24,168.0,2014-08-19,2014-08-19
CDISCPILOT01,SV,01-710-1027,13.0,WEEK 26,182.0,2014-08-29,2014-08-29
CDISCPILOT01,SV,01-710-1045,1.0,SCREENING 1,-7.0,2013-05-20,2013-05-20
CDISCPILOT01,SV,01-710-1045,2.0,SCREENING 2,-1.0,2013-06-01,2013-06-01
CDISCPILOT01,SV,01-710-1045,3.0,BASELINE,1.0,2013-06-03,2013-06-03
CDISCPILOT01,SV,01-710-1045,3.5,AMBUL ECG PLACEMENT,13.0,2013-06-16,2013-06-16
CDISCPILOT01,SV,01-710-1045,4.0,WEEK 2,14.0,2013-06-17,2013-06-17
CDISCPILOT01,SV,01-710-1045,5.0,WEEK 4,28.0,2013-07-01,2013-07-01
CDISCPILOT01,SV,01-710-1045,6.0,AMBUL ECG REMOVAL,30.0,2013-07-05,2013-07-05
CDISCPILOT01,SV,01-710-1045,7.0,WEEK 6,42.0,2013-07-15,2013-07-15
CDISCPILOT01,SV,01-710-1045,8.0,WEEK 8,56.0,2013-07-29,2013-07-29
CDISCPILOT01,SV,01-710-1045,8.1,WEEK 10 (T),70.0,2013-08-12,2013-08-12
CDISCPILOT01,SV,01-710-1045,9.0,WEEK 12,84.0,2013-08-17,2013-08-17
CDISCPILOT01,SV,01-710-1045,101.0,AE FOLLOW-UP,,2013-09-08,2013-09-08
CDISCPILOT01,SV,01-710-1053,1.0,SCREENING 1,-7.0,2012-12-15,2012-12-15
CDISCPILOT01,SV,01-710-1053,2.0,SCREENING 2,-1.0,2012-12-24,2012-12-24
CDISCPILOT01,SV,01-710-1053,3.0,BASELINE,1.0,2012-12-26,2012-12-26
CDISCPILOT01,SV,01-710-1053,3.5,AMBUL ECG PLACEMENT,13.0,2013-01-08,2013-01-08
CDISCPILOT01,SV,01-710-1053,4.0,WEEK 2,14.0,2013-01-09,2013-01-09
CDISCPILOT01,SV,01-710-1053,5.0,WEEK 4,28.0,2013-01-24,2013-01-24
CDISCPILOT01,SV,01-710-1053,6.0,AMBUL ECG REMOVAL,30.0,2013-01-26,2013-01-26
CDISCPILOT01,SV,01-710-1053,7.0,WEEK 6,42.0,2013-02-06,2013-02-06
CDISCPILOT01,SV,01-710-1053,8.0,WEEK 8,56.0,2013-02-15,2013-02-15
CDISCPILOT01,SV,01-710-1053,8.2,UNSCHEDULED 8.2,,2013-02-26,2013-02-26
CDISCPILOT01,SV,01-710-1053,101.0,AE FOLLOW-UP,,2013-02-26,2013-02-26
CDISCPILOT01,SV,01-710-1060,1.0,SCREENING 1,-7.0,2012-12-24,2012-12-24
CDISCPILOT01,SV,01-710-1060,2.0,SCREENING 2,-1.0,2012-12-30,2012-12-30
CDISCPILOT01,SV,01-710-1060,3.0,BASELINE,1.0,2013-01-01,2013-01-01
CDISCPILOT01,SV,01-710-1060,3.5,AMBUL ECG PLACEMENT,13.0,2013-01-14,2013-01-14
CDISCPILOT01,SV,01-710-1060,4.0,WEEK 2,14.0,2013-01-15,2013-01-15
CDISCPILOT01,SV,01-710-1060,5.0,WEEK 4,28.0,2013-02-01,2013-02-01
CDISCPILOT01,SV,01-710-1060,6.0,AMBUL ECG REMOVAL,30.0,2013-02-03,2013-02-03
CDISCPILOT01,SV,01-710-1060,7.0,WEEK 6,42.0,2013-02-12,2013-02-12
CDISCPILOT01,SV,01-710-1060,8.0,WEEK 8,56.0,2013-02-26,2013-02-26
CDISCPILOT01,SV,01-710-1060,8.1,WEEK 10 (T),70.0,2013-03-12,2013-03-12
CDISCPILOT01,SV,01-710-1060,8.2,UNSCHEDULED 8.2,,2013-03-12,2013-03-12
CDISCPILOT01,SV,01-710-1060,9.0,WEEK 12,84.0,2013-03-26,2013-03-26
CDISCPILOT01,SV,01-710-1060,9.1,WEEK 14 (T),98.0,2013-04-09,2013-04-09
CDISCPILOT01,SV,01-710-1060,10.0,WEEK 16,112.0,2013-04-23,2013-04-23
CDISCPILOT01,SV,01-710-1060,10.1,WEEK 18 (T),126.0,2013-05-07,2013-05-07
CDISCPILOT01,SV,01-710-1060,11.0,WEEK 20,140.0,2013-05-24,2013-05-24
CDISCPILOT01,SV,01-710-1060,11.1,WEEK 22 (T),154.0,2013-06-07,2013-06-07
CDISCPILOT01,SV,01-710-1060,12.0,WEEK 24,168.0,2013-06-21,2013-06-21
CDISCPILOT01,SV,01-710-1060,13.0,WEEK 26,182.0,2013-07-05,2013-07-05
CDISCPILOT01,SV,01-710-1070,1.0,SCREENING 1,-7.0,2012-08-28,2012-08-28
CDISCPILOT01,SV,01-710-1070,2.0,SCREENING 2,-1.0,2012-09-06,2012-09-06
CDISCPILOT01,SV,01-710-1070,3.0,BASELINE,1.0,2012-09-08,2012-09-08
CDISCPILOT01,SV,01-710-1070,3.5,AMBUL ECG PLACEMENT,13.0,2012-09-21,2012-09-21
CDISCPILOT01,SV,01-710-1070,4.0,WEEK 2,14.0,2012-09-22,2012-09-22
CDISCPILOT01,SV,01-710-1070,5.0,WEEK 4,28.0,2012-10-06,2012-10-06
CDISCPILOT01,SV,01-710-1070,6.0,AMBUL ECG REMOVAL,30.0,2012-10-08,2012-10-08
CDISCPILOT01,SV,01-710-1070,7.0,WEEK 6,42.0,2012-10-20,2012-10-20
CDISCPILOT01,SV,01-710-1070,8.0,WEEK 8,56.0,2012-11-05,2012-11-05
CDISCPILOT01,SV,01-710-1070,8.1,WEEK 10 (T),70.0,2012-11-19,2012-11-19
CDISCPILOT01,SV,01-710-1070,9.0,WEEK 12,84.0,2012-12-01,2012-12-01
CDISCPILOT01,SV,01-710-1070,9.1,WEEK 14 (T),98.0,2012-12-15,2012-12-15
CDISCPILOT01,SV,01-710-1070,10.0,WEEK 16,112.0,2012-12-28,2012-12-28
CDISCPILOT01,SV,01-710-1070,10.1,WEEK 18 (T),126.0,2013-01-12,2013-01-12
CDISCPILOT01,SV,01-710-1070,11.0,WEEK 20,140.0,2013-02-23,2013-02-23
CDISCPILOT01,SV,01-710-1070,101.0,AE FOLLOW-UP,,2013-07-04,2013-07-04
CDISCPILOT01,SV,01-710-1077,1.0,SCREENING 1,-7.0,2013-11-03,2013-11-03
CDISCPILOT01,SV,01-710-1077,2.0,SCREENING 2,-1.0,2013-11-15,2013-11-15
CDISCPILOT01,SV,01-710-1077,3.0,BASELINE,1.0,2013-11-17,2013-11-17
CDISCPILOT01,SV,01-710-1077,3.5,AMBUL ECG PLACEMENT,13.0,2013-11-30,2013-11-30
CDISCPILOT01,SV,01-710-1077,4.0,WEEK 2,14.0,2013-12-01,2013-12-01
CDISCPILOT01,SV,01-710-1077,5.0,WEEK 4,28.0,2013-12-15,2013-12-15
CDISCPILOT01,SV,01-710-1077,6.0,AMBUL ECG REMOVAL,30.0,2013-12-17,2013-12-17
CDISCPILOT01,SV,01-710-1077,7.0,WEEK 6,42.0,2013-12-30,2013-12-30
CDISCPILOT01,SV,01-710-1077,8.0,WEEK 8,56.0,2014-01-12,2014-01-12
CDISCPILOT01,SV,01-710-1077,8.1,WEEK 10 (T),70.0,2014-01-26,2014-01-26
CDISCPILOT01,SV,01-710-1077,8.2,UNSCHEDULED 8.2,,2014-01-26,2014-01-26
CDISCPILOT01,SV,01-710-1077,9.0,WEEK 12,84.0,2014-02-09,2014-02-09
CDISCPILOT01,SV,01-710-1077,9.1,WEEK 14 (T),98.0,2014-02-23,2014-02-23
CDISCPILOT01,SV,01-710-1077,10.0,WEEK 16,112.0,2014-03-09,2014-03-09
CDISCPILOT01,SV,01-710-1077,10.1,WEEK 18 (T),126.0,2014-03-23,2014-03-23
CDISCPILOT01,SV,01-710-1077,11.0,WEEK 20,140.0,2014-04-06,2014-04-06
CDISCPILOT01,SV,01-710-1077,11.1,WEEK 22 (T),154.0,2014-04-20,2014-04-20
CDISCPILOT01,SV,01-710-1077,12.0,WEEK 24,168.0,2014-05-03,2014-05-03
CDISCPILOT01,SV,01-710-1077,13.0,WEEK 26,182.0,2014-05-18,2014-05-18
CDISCPILOT01,SV,01-710-1078,1.0,SCREENING 1,-7.0,2013-09-06,2013-09-06
CDISCPILOT01,SV,01-710-1078,2.0,SCREENING 2,-1.0,2013-09-15,2013-09-15
CDISCPILOT01,SV,01-710-1078,3.0,BASELINE,1.0,2013-09-17,2013-09-17
CDISCPILOT01,SV,01-710-1078,3.5,AMBUL ECG PLACEMENT,13.0,2013-10-05,2013-10-05
CDISCPILOT01,SV,01-710-1078,4.0,WEEK 2,14.0,2013-10-06,2013-10-06
CDISCPILOT01,SV,01-710-1078,5.0,WEEK 4,28.0,2013-10-20,2013-10-20
CDISCPILOT01,SV,01-710-1078,6.0,AMBUL ECG REMOVAL,30.0,2013-10-22,2013-10-22
CDISCPILOT01,SV,01-710-1078,7.0,WEEK 6,42.0,2013-11-03,2013-11-03
CDISCPILOT01,SV,01-710-1078,8.0,WEEK 8,56.0,2013-11-17,2013-11-17
CDISCPILOT01,SV,01-710-1078,8.1,WEEK 10 (T),70.0,2013-12-01,2013-12-01
CDISCPILOT01,SV,01-710-1078,9.0,WEEK 12,84.0,2013-12-21,2013-12-21
CDISCPILOT01,SV,01-710-1078,9.1,WEEK 14 (T),98.0,2014-01-04,2014-01-04
CDISCPILOT01,SV,01-710-1078,10.0,WEEK 16,112.0,2014-01-12,2014-01-12
CDISCPILOT01,SV,01-710-1078,10.1,WEEK 18 (T),126.0,2014-01-26,2014-01-26
CDISCPILOT01,SV,01-710-1078,11.0,WEEK 20,140.0,2014-02-09,2014-02-09
CDISCPILOT01,SV,01-710-1078,11.1,WEEK 22 (T),154.0,2014-02-23,2014-02-23
CDISCPILOT01,SV,01-710-1078,12.0,WEEK 24,168.0,2014-03-08,2014-03-08
CDISCPILOT01,SV,01-710-1078,13.0,WEEK 26,182.0,2014-03-23,2014-03-23
CDISCPILOT01,SV,01-710-1083,1.0,SCREENING 1,-7.0,2013-07-09,2013-07-09
CDISCPILOT01,SV,01-710-1083,2.0,SCREENING 2,-1.0,2013-07-20,2013-07-20
CDISCPILOT01,SV,01-710-1083,3.0,BASELINE,1.0,2013-07-22,2013-07-22
CDISCPILOT01,SV,01-710-1083,4.0,WEEK 2,14.0,2013-08-03,2013-08-03
CDISCPILOT01,SV,01-710-1129,1.0,SCREENING 1,-7.0,2013-03-05,2013-03-05
CDISCPILOT01,SV,01-710-1137,1.0,SCREENING 1,-7.0,2013-10-03,2013-10-03
CDISCPILOT01,SV,01-710-1137,2.0,SCREENING 2,-1.0,2013-10-09,2013-10-09
CDISCPILOT01,SV,01-710-1137,3.0,BASELINE,1.0,2013-10-11,2013-10-11
CDISCPILOT01,SV,01-710-1137,3.5,AMBUL ECG PLACEMENT,13.0,2013-10-24,2013-10-24
CDISCPILOT01,SV,01-710-1137,4.0,WEEK 2,14.0,2013-10-25,2013-10-25
CDISCPILOT01,SV,01-710-1137,5.0,WEEK 4,28.0,2013-11-08,2013-11-08
CDISCPILOT01,SV,01-710-1137,6.0,AMBUL ECG REMOVAL,30.0,2013-11-11,2013-11-11
CDISCPILOT01,SV,01-710-1137,7.0,WEEK 6,42.0,2013-11-13,2013-11-13
CDISCPILOT01,SV,01-710-1137,101.0,AE FOLLOW-UP,,2013-11-25,2013-11-25
CDISCPILOT01,SV,01-710-1142,1.0,SCREENING 1,-7.0,2012-09-12,2012-09-12
CDISCPILOT01,SV,01-710-1142,2.0,SCREENING 2,-1.0,2012-09-30,2012-09-30
CDISCPILOT01,SV,01-710-1142,3.0,BASELINE,1.0,2012-10-02,2012-10-02
CDISCPILOT01,SV,01-710-1142,3.5,AMBUL ECG PLACEMENT,13.0,2012-10-15,2012-10-15
CDISCPILOT01,SV,01-710-1142,4.0,WEEK 2,14.0,2012-10-16,2012-10-16
CDISCPILOT01,SV,01-710-1142,5.0,WEEK 4,28.0,2012-10-23,2012-10-23
CDISCPILOT01,SV,01-710-1142,101.0,AE FOLLOW-UP,,2012-10-28,2012-10-28
CDISCPILOT01,SV,01-710-1149,1.0,SCREENING 1,-7.0,2013-11-16,2013-11-16
CDISCPILOT01,SV,01-710-1154,1.0,SCREENING 1,-7.0,2014-03-08,2014-03-08
CDISCPILOT01,SV,01-710-1154,1.1,UNSCHEDULED 1.1,,2014-03-15,2014-03-15
CDISCPILOT01,SV,01-710-1154,1.2,UNSCHEDULED 1.2,,2014-03-22,2014-03-22
CDISCPILOT01,SV,01-710-1154,2.0,SCREENING 2,-1.0,2014-03-28,2014-03-28
CDISCPILOT01,SV,01-710-1154,3.0,BASELINE,1.0,2014-03-29,2014-03-29
CDISCPILOT01,SV,01-710-1154,4.0,WEEK 2,14.0,2014-04-12,2014-04-12
CDISCPILOT01,SV,01-710-1154,5.0,WEEK 4,28.0,2014-04-25,2014-04-25
CDISCPILOT01,SV,01-710-1154,7.0,WEEK 6,42.0,2014-05-09,2014-05-09
CDISCPILOT01,SV,01-710-1154,101.0,AE FOLLOW-UP,,2014-06-13,2014-06-13
CDISCPILOT01,SV,01-710-1166,1.0,SCREENING 1,-7.0,2012-11-10,2012-11-10
CDISCPILOT01,SV,01-710-1166,2.0,SCREENING 2,-1.0,2012-11-28,2012-11-28
CDISCPILOT01,SV,01-710-1166,3.0,BASELINE,1.0,2012-11-30,2012-11-30
CDISCPILOT01,SV,01-710-1166,3.5,AMBUL ECG PLACEMENT,13.0,2012-12-13,2012-12-13
CDISCPILOT01,SV,01-710-1166,4.0,WEEK 2,14.0,2012-12-14,2012-12-14
CDISCPILOT01,SV,01-710-1166,5.0,WEEK 4,28.0,2012-12-28,2012-12-28
CDISCPILOT01,SV,01-710-1166,6.0,AMBUL ECG REMOVAL,30.0,2012-12-30,2012-12-30
CDISCPILOT01,SV,01-710-1166,7.0,WEEK 6,42.0,2013-01-11,2013-01-11
CDISCPILOT01,SV,01-710-1166,7.1,UNSCHEDULED 7.1,,2013-01-16,2013-01-16
CDISCPILOT01,SV,01-710-1166,8.0,WEEK 8,56.0,2013-01-25,2013-01-25
CDISCPILOT01,SV,01-710-1166,8.1,WEEK 10 (T),70.0,2013-02-08,2013-02-08
CDISCPILOT01,SV,01-710-1166,9.0,WEEK 12,84.0,2013-02-22,2013-02-22
CDISCPILOT01,SV,01-710-1166,9.1,WEEK 14 (T),98.0,2013-03-08,2013-03-08
CDISCPILOT01,SV,01-710-1166,10.0,WEEK 16,112.0,2013-03-30,2013-03-30
CDISCPILOT01,SV,01-710-1166,101.0,AE FOLLOW-UP,,2013-05-22,2013-05-22
CDISCPILOT01,SV,01-710-1183,1.0,SCREENING 1,-7.0,2013-10-24,2013-10-24
CDISCPILOT01,SV,01-710-1183,1.1,UNSCHEDULED 1.1,,2013-11-01,2013-11-01
CDISCPILOT01,SV,01-710-1183,2.0,SCREENING 2,-1.0,2013-11-14,2013-11-14
CDISCPILOT01,SV,01-710-1183,3.0,BASELINE,1.0,2013-11-16,2013-11-16
CDISCPILOT01,SV,01-710-1183,3.5,AMBUL ECG PLACEMENT,13.0,2013-11-29,2013-11-29
CDISCPILOT01,SV,01-710-1183,4.0,WEEK 2,14.0,2013-11-30,2013-11-30
CDISCPILOT01,SV,01-710-1183,5.0,WEEK 4,28.0,2013-12-14,2013-12-14
CDISCPILOT01,SV,01-710-1183,6.0,AMBUL ECG REMOVAL,30.0,2013-12-16,2013-12-16
CDISCPILOT01,SV,01-710-1183,7.0,WEEK 6,42.0,2013-12-28,2013-12-28
CDISCPILOT01,SV,01-710-1183,8.0,WEEK 8,56.0,2014-01-11,2014-01-11
CDISCPILOT01,SV,01-710-1183,8.1,WEEK 10 (T),70.0,2014-01-25,2014-01-25
CDISCPILOT01,SV,01-710-1183,9.0,WEEK 12,84.0,2014-02-08,2014-02-08
CDISCPILOT01,SV,01-710-1183,9.1,WEEK 14 (T),98.0,2014-02-21,2014-02-21
CDISCPILOT01,SV,01-710-1183,10.0,WEEK 16,112.0,2014-03-10,2014-03-10
CDISCPILOT01,SV,01-710-1183,10.1,WEEK 18 (T),126.0,2014-03-22,2014-03-22
CDISCPILOT01,SV,01-710-1183,10.2,UNSCHEDULED 10.2,,2014-03-22,2014-03-22
CDISCPILOT01,SV,01-710-1183,11.0,WEEK 20,140.0,2014-04-05,2014-04-05
CDISCPILOT01,SV,01-710-1183,11.1,WEEK 22 (T),154.0,2014-04-19,2014-04-19
CDISCPILOT01,SV,01-710-1183,11.2,UNSCHEDULED 11.2,,2014-04-19,2014-04-19
CDISCPILOT01,SV,01-710-1183,12.0,WEEK 24,168.0,2014-05-03,2014-05-03
CDISCPILOT01,SV,01-710-1183,12.1,UNSCHEDULED 12.1,,2014-05-10,2014-05-10
CDISCPILOT01,SV,01-710-1183,13.0,WEEK 26,182.0,2014-05-17,2014-05-17
CDISCPILOT01,SV,01-710-1187,1.0,SCREENING 1,-7.0,2012-10-26,2012-10-26
CDISCPILOT01,SV,01-710-1187,2.0,SCREENING 2,-1.0,2012-11-08,2012-11-08
CDISCPILOT01,SV,01-710-1187,3.0,BASELINE,1.0,2012-11-10,2012-11-10
CDISCPILOT01,SV,01-710-1187,3.5,AMBUL ECG PLACEMENT,13.0,2012-11-23,2012-11-23
CDISCPILOT01,SV,01-710-1187,4.0,WEEK 2,14.0,2012-11-24,2012-11-24
CDISCPILOT01,SV,01-710-1187,4.1,UNSCHEDULED 4.1,,2012-11-25,2012-11-25
CDISCPILOT01,SV,01-710-1187,5.0,WEEK 4,28.0,2012-12-09,2012-12-09
CDISCPILOT01,SV,01-710-1187,5.1,UNSCHEDULED 5.1,,2012-12-06,2012-12-06
CDISCPILOT01,SV,01-710-1187,6.0,AMBUL ECG REMOVAL,30.0,2012-12-11,2012-12-11
CDISCPILOT01,SV,01-710-1187,7.0,WEEK 6,42.0,2012-12-23,2012-12-23
CDISCPILOT01,SV,01-710-1187,7.1,UNSCHEDULED 7.1,,2012-12-30,2012-12-30
CDISCPILOT01,SV,01-710-1187,8.0,WEEK 8,56.0,2013-01-06,2013-01-06
CDISCPILOT01,SV,01-710-1187,8.1,WEEK 10 (T),70.0,2013-01-20,2013-01-20
CDISCPILOT01,SV,01-710-1187,9.0,WEEK 12,84.0,2013-02-03,2013-02-03
CDISCPILOT01,SV,01-710-1187,9.1,WEEK 14 (T),98.0,2013-02-17,2013-02-17
CDISCPILOT01,SV,01-710-1187,10.0,WEEK 16,112.0,2013-03-02,2013-03-02
CDISCPILOT01,SV,01-710-1187,10.1,WEEK 18 (T),126.0,2013-03-15,2013-03-15
CDISCPILOT01,SV,01-710-1187,11.0,WEEK 20,140.0,2013-03-31,2013-03-31
CDISCPILOT01,SV,01-710-1187,11.1,WEEK 22 (T),154.0,2013-03-31,2013-03-31
CDISCPILOT01,SV,01-710-1187,12.0,WEEK 24,168.0,2013-04-28,2013-04-28
CDISCPILOT01,SV,01-710-1187,13.0,WEEK 26,182.0,2013-05-12,2013-05-12
CDISCPILOT01,SV,01-710-1235,1.0,SCREENING 1,-7.0,2012-09-13,2012-09-13
CDISCPILOT01,SV,01-710-1235,2.0,SCREENING 2,-1.0,2012-09-23,2012-09-23
CDISCPILOT01,SV,01-710-1235,3.0,BASELINE,1.0,2012-09-26,2012-09-26
CDISCPILOT01,SV,01-710-1235,3.5,AMBUL ECG PLACEMENT,13.0,2012-10-09,2012-10-09
CDISCPILOT01,SV,01-710-1235,4.0,WEEK 2,14.0,2012-10-10,2012-10-10
CDISCPILOT01,SV,01-710-1235,5.0,WEEK 4,28.0,2012-10-24,2012-10-24
CDISCPILOT01,SV,01-710-1235,6.0,AMBUL ECG REMOVAL,30.0,2012-10-27,2012-10-27
CDISCPILOT01,SV,01-710-1235,7.0,WEEK 6,42.0,2012-11-07,2012-11-07
CDISCPILOT01,SV,01-710-1235,8.0,WEEK 8,56.0,2012-11-21,2012-11-21
CDISCPILOT01,SV,01-710-1235,8.1,WEEK 10 (T),70.0,2012-12-05,2012-12-05
CDISCPILOT01,SV,01-710-1235,9.0,WEEK 12,84.0,2012-12-19,2012-12-19
CDISCPILOT01,SV,01-710-1235,9.1,WEEK 14 (T),98.0,2013-01-02,2013-01-02
CDISCPILOT01,SV,01-710-1235,10.0,WEEK 16,112.0,2013-01-15,2013-01-15
CDISCPILOT01,SV,01-710-1235,10.1,WEEK 18 (T),126.0,2013-01-29,2013-01-29
CDISCPILOT01,SV,01-710-1235,11.0,WEEK 20,140.0,2013-02-12,2013-02-12
CDISCPILOT01,SV,01-710-1235,11.1,WEEK 22 (T),154.0,2013-02-26,2013-02-26
CDISCPILOT01,SV,01-710-1235,12.0,WEEK 24,168.0,2013-03-13,2013-03-13
CDISCPILOT01,SV,01-710-1235,13.0,WEEK 26,182.0,2013-03-27,2013-03-27
CDISCPILOT01,SV,01-710-1249,1.0,SCREENING 1,-7.0,2013-12-19,2013-12-19
CDISCPILOT01,SV,01-710-1249,2.0,SCREENING 2,-1.0,2013-12-26,2013-12-26
CDISCPILOT01,SV,01-710-1249,3.0,BASELINE,1.0,2013-12-28,2013-12-28
CDISCPILOT01,SV,01-710-1249,3.5,AMBUL ECG PLACEMENT,13.0,2014-01-10,2014-01-10
CDISCPILOT01,SV,01-710-1249,4.0,WEEK 2,14.0,2014-01-11,2014-01-11
CDISCPILOT01,SV,01-710-1249,5.0,WEEK 4,28.0,2014-01-25,2014-01-25
CDISCPILOT01,SV,01-710-1249,6.0,AMBUL ECG REMOVAL,30.0,2014-01-27,2014-01-27
CDISCPILOT01,SV,01-710-1249,7.0,WEEK 6,42.0,2014-02-08,2014-02-08
CDISCPILOT01,SV,01-710-1249,8.0,WEEK 8,56.0,2014-02-22,2014-02-22
CDISCPILOT01,SV,01-710-1249,8.1,WEEK 10 (T),70.0,2014-03-08,2014-03-08
CDISCPILOT01,SV,01-710-1249,9.0,WEEK 12,84.0,2014-03-22,2014-03-22
CDISCPILOT01,SV,01-710-1249,9.1,WEEK 14 (T),98.0,2014-04-05,2014-04-05
CDISCPILOT01,SV,01-710-1249,10.0,WEEK 16,112.0,2014-04-19,2014-04-19
CDISCPILOT01,SV,01-710-1249,10.1,WEEK 18 (T),126.0,2014-05-03,2014-05-03
CDISCPILOT01,SV,01-710-1249,11.0,WEEK 20,140.0,2014-05-17,2014-05-17
CDISCPILOT01,SV,01-710-1249,11.1,WEEK 22 (T),154.0,2014-05-31,2014-05-31
CDISCPILOT01,SV,01-710-1249,12.0,WEEK 24,168.0,2014-06-14,2014-06-14
CDISCPILOT01,SV,01-710-1249,13.0,WEEK 26,182.0,2014-06-28,2014-06-28
CDISCPILOT01,SV,01-710-1257,1.0,SCREENING 1,-7.0,2013-11-29,2013-11-29
CDISCPILOT01,SV,01-710-1264,1.0,SCREENING 1,-7.0,2013-06-02,2013-06-02
CDISCPILOT01,SV,01-710-1264,2.0,SCREENING 2,-1.0,2013-06-11,2013-06-11
CDISCPILOT01,SV,01-710-1264,3.0,BASELINE,1.0,2013-06-13,2013-06-13
CDISCPILOT01,SV,01-710-1264,3.5,AMBUL ECG PLACEMENT,13.0,2013-06-26,2013-06-26
CDISCPILOT01,SV,01-710-1264,4.0,WEEK 2,14.0,2013-06-27,2013-06-27
CDISCPILOT01,SV,01-710-1264,5.0,WEEK 4,28.0,2013-07-11,2013-07-11
CDISCPILOT01,SV,01-710-1264,6.0,AMBUL ECG REMOVAL,30.0,2013-07-13,2013-07-13
CDISCPILOT01,SV,01-710-1264,7.0,WEEK 6,42.0,2013-07-25,2013-07-25
CDISCPILOT01,SV,01-710-1264,8.0,WEEK 8,56.0,2013-08-08,2013-08-08
CDISCPILOT01,SV,01-710-1264,8.1,WEEK 10 (T),70.0,2013-08-22,2013-08-22
CDISCPILOT01,SV,01-710-1264,9.0,WEEK 12,84.0,2013-09-03,2013-09-03
CDISCPILOT01,SV,01-710-1264,9.1,WEEK 14 (T),98.0,2013-09-19,2013-09-19
CDISCPILOT01,SV,01-710-1264,10.0,WEEK 16,112.0,2013-10-01,2013-10-01
CDISCPILOT01,SV,01-710-1264,11.0,WEEK 20,140.0,2013-10-12,2013-10-12
CDISCPILOT01,SV,01-710-1264,101.0,AE FOLLOW-UP,,2013-11-05,2013-11-05
CDISCPILOT01,SV,01-710-1270,1.0,SCREENING 1,-7.0,2014-02-01,2014-02-01
CDISCPILOT01,SV,01-710-1270,2.0,SCREENING 2,-1.0,2014-02-10,2014-02-10
CDISCPILOT01,SV,01-710-1270,3.0,BASELINE,1.0,2014-02-12,2014-02-12
CDISCPILOT01,SV,01-710-1270,4.0,WEEK 2,14.0,2014-03-01,2014-03-01
CDISCPILOT01,SV,01-710-1270,101.0,AE FOLLOW-UP,,2014-03-26,2014-03-26
CDISCPILOT01,SV,01-710-1271,1.0,SCREENING 1,-7.0,2012-09-04,2012-09-04
CDISCPILOT01,SV,01-710-1271,2.0,SCREENING 2,-1.0,2012-09-24,2012-09-24
CDISCPILOT01,SV,01-710-1271,3.0,BASELINE,1.0,2012-09-27,2012-09-27
CDISCPILOT01,SV,01-710-1271,3.5,AMBUL ECG PLACEMENT,13.0,2012-10-11,2012-10-11
CDISCPILOT01,SV,01-710-1271,4.0,WEEK 2,14.0,2012-10-12,2012-10-12
CDISCPILOT01,SV,01-710-1271,5.0,WEEK 4,28.0,2012-10-26,2012-10-26
CDISCPILOT01,SV,01-710-1271,6.0,AMBUL ECG REMOVAL,30.0,2012-10-28,2012-10-28
CDISCPILOT01,SV,01-710-1271,7.0,WEEK 6,42.0,2012-11-08,2012-11-08
CDISCPILOT01,SV,01-710-1271,8.0,WEEK 8,56.0,2012-12-02,2012-12-02
CDISCPILOT01,SV,01-710-1271,101.0,AE FOLLOW-UP,,2012-12-09,2012-12-09
CDISCPILOT01,SV,01-710-1278,1.0,SCREENING 1,-7.0,2012-12-13,2012-12-13
CDISCPILOT01,SV,01-710-1278,2.0,SCREENING 2,-1.0,2012-12-22,2012-12-22
CDISCPILOT01,SV,01-710-1278,3.0,BASELINE,1.0,2012-12-24,2012-12-24
CDISCPILOT01,SV,01-710-1278,3.5,AMBUL ECG PLACEMENT,13.0,2013-01-06,2013-01-06
CDISCPILOT01,SV,01-710-1278,4.0,WEEK 2,14.0,2013-01-07,2013-01-07
CDISCPILOT01,SV,01-710-1278,5.0,WEEK 4,28.0,2013-01-24,2013-01-24
CDISCPILOT01,SV,01-710-1278,6.0,AMBUL ECG REMOVAL,30.0,2013-01-26,2013-01-26
CDISCPILOT01,SV,01-710-1278,7.0,WEEK 6,42.0,2013-02-07,2013-02-07
CDISCPILOT01,SV,01-710-1278,8.0,WEEK 8,56.0,2013-02-21,2013-02-21
CDISCPILOT01,SV,01-710-1278,9.0,WEEK 12,84.0,2013-03-03,2013-03-03
CDISCPILOT01,SV,01-710-1278,101.0,AE FOLLOW-UP,,2013-03-10,2013-03-10
CDISCPILOT01,SV,01-710-1300,1.0,SCREENING 1,-7.0,2012-12-04,2012-12-04
CDISCPILOT01,SV,01-710-1300,2.0,SCREENING 2,-1.0,2012-12-13,2012-12-13
CDISCPILOT01,SV,01-710-1300,3.0,BASELINE,1.0,2012-12-15,2012-12-15
CDISCPILOT01,SV,01-710-1300,3.5,AMBUL ECG PLACEMENT,13.0,2012-12-29,2012-12-29
CDISCPILOT01,SV,01-710-1300,4.0,WEEK 2,14.0,2012-12-30,2012-12-30
CDISCPILOT01,SV,01-710-1300,5.0,WEEK 4,28.0,2013-01-13,2013-01-13
CDISCPILOT01,SV,01-710-1300,6.0,AMBUL ECG REMOVAL,30.0,2013-01-15,2013-01-15
CDISCPILOT01,SV,01-710-1300,7.0,WEEK 6,42.0,2013-01-28,2013-01-28
CDISCPILOT01,SV,01-710-1300,8.0,WEEK 8,56.0,2013-02-11,2013-02-11
CDISCPILOT01,SV,01-710-1300,9.0,WEEK 12,84.0,2013-02-19,2013-02-19
CDISCPILOT01,SV,01-710-1300,101.0,AE FOLLOW-UP,,2013-03-19,2013-03-19
CDISCPILOT01,SV,01-710-1314,1.0,SCREENING 1,-7.0,2013-04-21,2013-04-21
CDISCPILOT01,SV,01-710-1314,2.0,SCREENING 2,-1.0,2013-04-22,2013-04-22
CDISCPILOT01,SV,01-710-1314,3.0,BASELINE,1.0,2013-04-24,2013-04-24
CDISCPILOT01,SV,01-710-1314,3.5,AMBUL ECG PLACEMENT,13.0,2013-05-08,2013-05-08
CDISCPILOT01,SV,01-710-1314,4.0,WEEK 2,14.0,2013-05-09,2013-05-09
CDISCPILOT01,SV,01-710-1314,5.0,WEEK 4,28.0,2013-05-23,2013-05-23
CDISCPILOT01,SV,01-710-1314,6.0,AMBUL ECG REMOVAL,30.0,2013-05-25,2013-05-25
CDISCPILOT01,SV,01-710-1315,1.0,SCREENING 1,-7.0,2013-02-12,2013-02-12
CDISCPILOT01,SV,01-710-1315,1.1,UNSCHEDULED 1.1,,2013-02-20,2013-02-20
CDISCPILOT01,SV,01-710-1315,2.0,SCREENING 2,-1.0,2013-02-25,2013-02-25
CDISCPILOT01,SV,01-710-1315,3.0,BASELINE,1.0,2013-02-27,2013-02-27
CDISCPILOT01,SV,01-710-1315,3.5,AMBUL ECG PLACEMENT,13.0,2013-03-12,2013-03-12
CDISCPILOT01,SV,01-710-1315,4.0,WEEK 2,14.0,2013-03-13,2013-03-13
CDISCPILOT01,SV,01-710-1315,5.0,WEEK 4,28.0,2013-03-26,2013-03-26
CDISCPILOT01,SV,01-710-1315,6.0,AMBUL ECG REMOVAL,30.0,2013-03-28,2013-03-28
CDISCPILOT01,SV,01-710-1315,7.0,WEEK 6,42.0,2013-04-10,2013-04-10
CDISCPILOT01,SV,01-710-1315,8.0,WEEK 8,56.0,2013-04-23,2013-04-23
CDISCPILOT01,SV,01-710-1315,8.1,WEEK 10 (T),70.0,2013-05-07,2013-05-07
CDISCPILOT01,SV,01-710-1315,9.0,WEEK 12,84.0,2013-05-21,2013-05-21
CDISCPILOT01,SV,01-710-1315,9.1,WEEK 14 (T),98.0,2013-06-04,2013-06-04
CDISCPILOT01,SV,01-710-1315,10.0,WEEK 16,112.0,2013-06-18,2013-06-18
CDISCPILOT01,SV,01-710-1315,10.1,WEEK 18 (T),126.0,2013-07-02,2013-07-02
CDISCPILOT01,SV,01-710-1315,11.0,WEEK 20,140.0,2013-07-16,2013-07-16
CDISCPILOT01,SV,01-710-1315,101.0,AE FOLLOW-UP,,2013-09-02,2013-09-02
CDISCPILOT01,SV,01-710-1337,1.0,SCREENING 1,-7.0,2013-12-30,2013-12-30
CDISCPILOT01,SV,01-710-1354,1.0,SCREENING 1,-7.0,2012-10-29,2012-10-29
CDISCPILOT01,SV,01-710-1354,2.0,SCREENING 2,-1.0,2012-11-09,2012-11-09
CDISCPILOT01,SV,01-710-1354,3.0,BASELINE,1.0,2012-11-11,2012-11-11
CDISCPILOT01,SV,01-710-1354,3.5,AMBUL ECG PLACEMENT,13.0,2012-11-24,2012-11-24
CDISCPILOT01,SV,01-710-1354,4.0,WEEK 2,14.0,2012-11-25,2012-11-25
CDISCPILOT01,SV,01-710-1354,5.0,WEEK 4,28.0,2012-12-08,2012-12-08
CDISCPILOT01,SV,01-710-1354,6.0,AMBUL ECG REMOVAL,30.0,2012-12-12,2012-12-12
CDISCPILOT01,SV,01-710-1354,7.0,WEEK 6,42.0,2012-12-22,2012-12-22
CDISCPILOT01,SV,01-710-1354,8.0,WEEK 8,56.0,2013-01-06,2013-01-06
CDISCPILOT01,SV,01-710-1354,8.1,WEEK 10 (T),70.0,2013-01-20,2013-01-20
CDISCPILOT01,SV,01-710-1354,9.0,WEEK 12,84.0,2013-02-02,2013-02-02
CDISCPILOT01,SV,01-710-1354,9.1,WEEK 14 (T),98.0,2013-02-16,2013-02-16
CDISCPILOT01,SV,01-710-1354,10.0,WEEK 16,112.0,2013-03-02,2013-03-02
CDISCPILOT01,SV,01-710-1354,10.1,WEEK 18 (T),126.0,2013-03-16,2013-03-16
CDISCPILOT01,SV,01-710-1354,11.0,WEEK 20,140.0,2013-03-30,2013-03-30
CDISCPILOT01,SV,01-710-1354,11.1,WEEK 22 (T),154.0,2013-04-13,2013-04-13
CDISCPILOT01,SV,01-710-1354,12.0,WEEK 24,168.0,2013-04-21,2013-04-21
CDISCPILOT01,SV,01-710-1354,13.0,WEEK 26,182.0,2013-05-01,2013-05-01
CDISCPILOT01,SV,01-710-1358,1.0,SCREENING 1,-7.0,2012-09-02,2012-09-02
CDISCPILOT01,SV,01-710-1358,2.0,SCREENING 2,-1.0,2012-09-15,2012-09-15
CDISCPILOT01,SV,01-710-1358,3.0,BASELINE,1.0,2012-09-17,2012-09-17
CDISCPILOT01,SV,01-710-1358,3.5,AMBUL ECG PLACEMENT,13.0,2012-09-30,2012-09-30
CDISCPILOT01,SV,01-710-1358,4.0,WEEK 2,14.0,2012-10-01,2012-10-01
CDISCPILOT01,SV,01-710-1358,5.0,WEEK 4,28.0,2012-10-20,2012-10-20
CDISCPILOT01,SV,01-710-1358,6.0,AMBUL ECG REMOVAL,30.0,2012-10-22,2012-10-22
CDISCPILOT01,SV,01-710-1358,7.0,WEEK 6,42.0,2012-10-30,2012-10-30
CDISCPILOT01,SV,01-710-1358,8.0,WEEK 8,56.0,2012-11-14,2012-11-14
CDISCPILOT01,SV,01-710-1358,8.1,WEEK 10 (T),70.0,2012-11-28,2012-11-28
CDISCPILOT01,SV,01-710-1358,9.0,WEEK 12,84.0,2012-12-12,2012-12-12
CDISCPILOT01,SV,01-710-1358,9.1,WEEK 14 (T),98.0,2012-12-26,2012-12-26
CDISCPILOT01,SV,01-710-1358,10.0,WEEK 16,112.0,2013-01-09,2013-01-09
CDISCPILOT01,SV,01-710-1358,10.1,WEEK 18 (T),126.0,2013-01-23,2013-01-23
CDISCPILOT01,SV,01-710-1358,11.0,WEEK 20,140.0,2013-02-06,2013-02-06
CDISCPILOT01,SV,01-710-1358,12.0,WEEK 24,168.0,2013-03-12,2013-03-12
CDISCPILOT01,SV,01-710-1368,1.0,SCREENING 1,-7.0,2013-10-21,2013-10-21
CDISCPILOT01,SV,01-710-1368,2.0,SCREENING 2,-1.0,2013-10-22,2013-10-22
CDISCPILOT01,SV,01-710-1368,3.0,BASELINE,1.0,2013-10-23,2013-10-23
CDISCPILOT01,SV,01-710-1368,3.5,AMBUL ECG PLACEMENT,13.0,2013-11-05,2013-11-05
CDISCPILOT01,SV,01-710-1368,4.0,WEEK 2,14.0,2013-11-06,2013-11-06
CDISCPILOT01,SV,01-710-1368,5.0,WEEK 4,28.0,2013-11-20,2013-11-20
CDISCPILOT01,SV,01-710-1368,6.0,AMBUL ECG REMOVAL,30.0,2013-11-22,2013-11-22
CDISCPILOT01,SV,01-710-1368,7.0,WEEK 6,42.0,2013-12-04,2013-12-04
CDISCPILOT01,SV,01-710-1368,8.0,WEEK 8,56.0,2013-12-19,2013-12-19
CDISCPILOT01,SV,01-710-1368,8.1,WEEK 10 (T),70.0,2014-01-01,2014-01-01
CDISCPILOT01,SV,01-710-1368,9.0,WEEK 12,84.0,2014-01-15,2014-01-15
CDISCPILOT01,SV,01-710-1368,9.1,WEEK 14 (T),98.0,2014-01-29,2014-01-29
CDISCPILOT01,SV,01-710-1368,10.0,WEEK 16,112.0,2014-02-12,2014-02-12
CDISCPILOT01,SV,01-710-1368,10.1,WEEK 18 (T),126.0,2014-02-26,2014-02-26
CDISCPILOT01,SV,01-710-1368,11.0,WEEK 20,140.0,2014-03-12,2014-03-12
CDISCPILOT01,SV,01-710-1368,11.1,WEEK 22 (T),154.0,2014-03-26,2014-03-26
CDISCPILOT01,SV,01-710-1368,12.0,WEEK 24,168.0,2014-04-09,2014-04-09
CDISCPILOT01,SV,01-710-1368,13.0,WEEK 26,182.0,2014-04-24,2014-04-24
CDISCPILOT01,SV,01-710-1376,1.0,SCREENING 1,-7.0,2014-04-21,2014-04-21
CDISCPILOT01,SV,01-710-1380,1.0,SCREENING 1,-7.0,2013-06-02,2013-06-02
CDISCPILOT01,SV,01-710-1385,1.0,SCREENING 1,-7.0,2012-10-21,2012-10-21
CDISCPILOT01,SV,01-710-1385,2.0,SCREENING 2,-1.0,2012-10-27,2012-10-27
CDISCPILOT01,SV,01-710-1385,3.0,BASELINE,1.0,2012-10-29,2012-10-29
CDISCPILOT01,SV,01-710-1385,3.5,AMBUL ECG PLACEMENT,13.0,2012-11-11,2012-11-11
CDISCPILOT01,SV,01-710-1385,4.0,WEEK 2,14.0,2012-11-12,2012-11-12
CDISCPILOT01,SV,01-710-1385,4.1,UNSCHEDULED 4.1,,2012-11-13,2012-11-13
CDISCPILOT01,SV,01-710-1385,4.2,UNSCHEDULED 4.2,,2012-11-20,2012-11-20
CDISCPILOT01,SV,01-710-1385,5.0,WEEK 4,28.0,2012-11-26,2012-11-26
CDISCPILOT01,SV,01-710-1385,6.0,AMBUL ECG REMOVAL,30.0,2012-11-30,2012-11-30
CDISCPILOT01,SV,01-710-1385,7.0,WEEK 6,42.0,2012-12-10,2012-12-10
CDISCPILOT01,SV,01-710-1385,8.0,WEEK 8,56.0,2012-12-25,2012-12-25
CDISCPILOT01,SV,01-710-1385,8.1,WEEK 10 (T),70.0,2013-01-08,2013-01-08
CDISCPILOT01,SV,01-710-1385,9.0,WEEK 12,84.0,2013-01-21,2013-01-21
CDISCPILOT01,SV,01-710-1385,9.1,WEEK 14 (T),98.0,2013-02-04,2013-02-04
CDISCPILOT01,SV,01-710-1385,10.0,WEEK 16,112.0,2013-02-18,2013-02-18
CDISCPILOT01,SV,01-710-1385,10.2,UNSCHEDULED 10.2,,2013-02-24,2013-02-24
CDISCPILOT01,SV,01-710-1385,101.0,AE FOLLOW-UP,,2013-02-24,2013-02-24
CDISCPILOT01,SV,01-710-1408,1.0,SCREENING 1,-7.0,2012-12-26,2012-12-26
CDISCPILOT01,SV,01-710-1408,2.0,SCREENING 2,-1.0,2013-01-03,2013-01-03
CDISCPILOT01,SV,01-710-1408,3.0,BASELINE,1.0,2013-01-05,2013-01-05
CDISCPILOT01,SV,01-710-1408,3.5,AMBUL ECG PLACEMENT,13.0,2013-01-23,2013-01-23
CDISCPILOT01,SV,01-710-1408,4.0,WEEK 2,14.0,2013-01-24,2013-01-24
CDISCPILOT01,SV,01-710-1408,5.0,WEEK 4,28.0,2013-02-07,2013-02-07
CDISCPILOT01,SV,01-710-1408,6.0,AMBUL ECG REMOVAL,30.0,2013-02-09,2013-02-09
CDISCPILOT01,SV,01-710-1408,7.0,WEEK 6,42.0,2013-02-20,2013-02-20
CDISCPILOT01,SV,01-710-1408,8.0,WEEK 8,56.0,2013-03-07,2013-03-07
CDISCPILOT01,SV,01-710-1408,8.1,WEEK 10 (T),70.0,2013-03-21,2013-03-21
CDISCPILOT01,SV,01-710-1408,9.0,WEEK 12,84.0,2013-04-04,2013-04-04
CDISCPILOT01,SV,01-710-1408,9.1,WEEK 14 (T),98.0,2013-04-18,2013-04-18
CDISCPILOT01,SV,01-710-1408,10.0,WEEK 16,112.0,2013-05-03,2013-05-03
CDISCPILOT01,SV,01-710-1408,10.1,WEEK 18 (T),126.0,2013-05-17,2013-05-17
CDISCPILOT01,SV,01-710-1408,11.0,WEEK 20,140.0,2013-05-31,2013-05-31
CDISCPILOT01,SV,01-710-1408,11.1,WEEK 22 (T),154.0,2013-06-14,2013-06-14
CDISCPILOT01,SV,01-710-1408,12.0,WEEK 24,168.0,2013-06-28,2013-06-28
CDISCPILOT01,SV,01-710-1408,13.0,WEEK 26,182.0,2013-07-12,2013-07-12
CDISCPILOT01,SV,01-710-1443,1.0,SCREENING 1,-7.0,2013-12-13,2013-12-13
CDISCPILOT01,SV,01-711-1012,1.0,SCREENING 1,-7.0,2013-03-20,2013-03-20
CDISCPILOT01,SV,01-711-1012,1.1,UNSCHEDULED 1.1,,2013-03-23,2013-03-23
CDISCPILOT01,SV,01-711-1012,2.0,SCREENING 2,-1.0,2013-04-01,2013-04-01
CDISCPILOT01,SV,01-711-1012,3.0,BASELINE,1.0,2013-04-03,2013-04-03
CDISCPILOT01,SV,01-711-1012,3.5,AMBUL ECG PLACEMENT,13.0,2013-04-16,2013-04-16
CDISCPILOT01,SV,01-711-1012,4.0,WEEK 2,14.0,2013-04-17,2013-04-17
CDISCPILOT01,SV,01-711-1012,5.0,WEEK 4,28.0,2013-05-02,2013-05-02
CDISCPILOT01,SV,01-711-1012,101.0,AE FOLLOW-UP,,2013-07-17,2013-07-17
CDISCPILOT01,SV,01-711-1012,201.0,RETRIEVAL,168.0,2013-09-18,2013-09-18
CDISCPILOT01,SV,01-711-1022,1.0,SCREENING 1,-7.0,2014-03-17,2014-03-17
CDISCPILOT01,SV,01-711-1036,1.0,SCREENING 1,-7.0,2012-07-20,2012-07-20
CDISCPILOT01,SV,01-711-1036,2.0,SCREENING 2,-1.0,2012-07-27,2012-07-27
CDISCPILOT01,SV,01-711-1036,3.0,BASELINE,1.0,2012-07-29,2012-07-29
CDISCPILOT01,SV,01-711-1036,3.5,AMBUL ECG PLACEMENT,13.0,2012-08-11,2012-08-11
CDISCPILOT01,SV,01-711-1036,4.0,WEEK 2,14.0,2012-08-12,2012-08-12
CDISCPILOT01,SV,01-711-1036,5.0,WEEK 4,28.0,2012-08-29,2012-08-29
CDISCPILOT01,SV,01-711-1036,6.0,AMBUL ECG REMOVAL,30.0,2012-08-31,2012-08-31
CDISCPILOT01,SV,01-711-1036,7.0,WEEK 6,42.0,2012-09-09,2012-09-09
CDISCPILOT01,SV,01-711-1036,8.0,WEEK 8,56.0,2012-09-23,2012-09-23
CDISCPILOT01,SV,01-711-1036,8.1,WEEK 10 (T),70.0,2012-10-07,2012-10-07
CDISCPILOT01,SV,01-711-1036,9.0,WEEK 12,84.0,2012-10-21,2012-10-21
CDISCPILOT01,SV,01-711-1036,9.1,WEEK 14 (T),98.0,2012-11-03,2012-11-03
CDISCPILOT01,SV,01-711-1036,9.2,UNSCHEDULED 9.2,,2012-11-03,2012-11-03
CDISCPILOT01,SV,01-711-1036,10.0,WEEK 16,112.0,2012-11-17,2012-11-17
CDISCPILOT01,SV,01-711-1036,10.1,WEEK 18 (T),126.0,2012-12-02,2012-12-02
CDISCPILOT01,SV,01-711-1036,11.0,WEEK 20,140.0,2012-12-15,2012-12-15
CDISCPILOT01,SV,01-711-1036,11.1,WEEK 22 (T),154.0,2012-12-29,2012-12-29
CDISCPILOT01,SV,01-711-1036,12.0,WEEK 24,168.0,2013-01-13,2013-01-13
CDISCPILOT01,SV,01-711-1036,13.0,WEEK 26,182.0,2013-02-10,2013-02-10
CDISCPILOT01,SV,01-711-1143,1.0,SCREENING 1,-7.0,2013-03-30,2013-03-30
CDISCPILOT01,SV,01-711-1143,2.0,SCREENING 2,-1.0,2013-04-01,2013-04-01
CDISCPILOT01,SV,01-711-1143,3.0,BASELINE,1.0,2013-04-03,2013-04-03
CDISCPILOT01,SV,01-711-1143,3.5,AMBUL ECG PLACEMENT,13.0,2013-04-16,2013-04-16
CDISCPILOT01,SV,01-711-1143,4.0,WEEK 2,14.0,2013-04-17,2013-04-17
CDISCPILOT01,SV,01-711-1143,5.0,WEEK 4,28.0,2013-04-29,2013-04-29
CDISCPILOT01,SV,01-711-1143,6.0,AMBUL ECG REMOVAL,30.0,2013-05-01,2013-05-01
CDISCPILOT01,SV,01-711-1143,7.0,WEEK 6,42.0,2013-05-15,2013-05-15
CDISCPILOT01,SV,01-711-1143,7.1,UNSCHEDULED 7.1,,2013-05-19,2013-05-19
CDISCPILOT01,SV,01-711-1143,8.0,WEEK 8,56.0,2013-05-28,2013-05-28
CDISCPILOT01,SV,01-711-1143,9.0,WEEK 12,84.0,2013-06-01,2013-06-01
CDISCPILOT01,SV,01-711-1143,9.2,UNSCHEDULED 9.2,,2013-06-22,2013-06-22
CDISCPILOT01,SV,01-711-1143,9.2,UNSCHEDULED 9.2,,2013-09-22,2013-09-22
CDISCPILOT01,SV,01-711-1143,101.0,AE FOLLOW-UP,,2013-06-22,2013-06-22
CDISCPILOT01,SV,01-711-1143,201.0,RETRIEVAL,168.0,2013-09-22,2013-09-22
CDISCPILOT01,SV,01-711-1163,1.0,SCREENING 1,-7.0,2012-11-08,2012-11-08
CDISCPILOT01,SV,01-711-1173,1.0,SCREENING 1,-7.0,2012-10-04,2012-10-04
CDISCPILOT01,SV,01-711-1226,1.0,SCREENING 1,-7.0,2013-10-24,2013-10-24
CDISCPILOT01,SV,01-711-1251,1.0,SCREENING 1,-7.0,2014-02-28,2014-02-28
CDISCPILOT01,SV,01-711-1283,1.0,SCREENING 1,-7.0,2014-03-27,2014-03-27
CDISCPILOT01,SV,01-711-1284,1.0,SCREENING 1,-7.0,2013-08-05,2013-08-05
CDISCPILOT01,SV,01-711-1290,1.0,SCREENING 1,-7.0,2013-12-20,2013-12-20
CDISCPILOT01,SV,01-711-1433,1.0,SCREENING 1,-7.0,2013-01-23,2013-01-23
CDISCPILOT01,SV,01-711-1433,1.1,UNSCHEDULED 1.1,,2013-01-22,2013-01-22
CDISCPILOT01,SV,01-711-1433,2.0,SCREENING 2,-1.0,2013-01-25,2013-01-25
CDISCPILOT01,SV,01-711-1433,3.0,BASELINE,1.0,2013-01-27,2013-01-27
CDISCPILOT01,SV,01-711-1433,4.0,WEEK 2,14.0,2013-02-06,2013-02-06
CDISCPILOT01,SV,01-713-1043,1.0,SCREENING 1,-7.0,2013-08-17,2013-08-17
CDISCPILOT01,SV,01-713-1043,2.0,SCREENING 2,-1.0,2013-09-13,2013-09-13
CDISCPILOT01,SV,01-713-1043,3.0,BASELINE,1.0,2013-09-15,2013-09-15
CDISCPILOT01,SV,01-713-1043,3.5,AMBUL ECG PLACEMENT,13.0,2013-09-29,2013-09-29
CDISCPILOT01,SV,01-713-1043,4.0,WEEK 2,14.0,2013-09-30,2013-09-30
CDISCPILOT01,SV,01-713-1043,5.0,WEEK 4,28.0,2013-10-11,2013-10-11
CDISCPILOT01,SV,01-713-1043,6.0,AMBUL ECG REMOVAL,30.0,2013-10-13,2013-10-13
CDISCPILOT01,SV,01-713-1043,7.0,WEEK 6,42.0,2013-11-01,2013-11-01
CDISCPILOT01,SV,01-713-1043,8.0,WEEK 8,56.0,2013-11-11,2013-11-11
CDISCPILOT01,SV,01-713-1043,8.1,WEEK 10 (T),70.0,2013-11-25,2013-11-25
CDISCPILOT01,SV,01-713-1043,9.0,WEEK 12,84.0,2013-12-06,2013-12-06
CDISCPILOT01,SV,01-713-1043,9.1,WEEK 14 (T),98.0,2013-12-22,2013-12-22
CDISCPILOT01,SV,01-713-1043,10.0,WEEK 16,112.0,2014-01-03,2014-01-03
CDISCPILOT01,SV,01-713-1043,10.1,WEEK 18 (T),126.0,2014-01-21,2014-01-21
CDISCPILOT01,SV,01-713-1043,11.0,WEEK 20,140.0,2014-01-26,2014-01-26
CDISCPILOT01,SV,01-713-1043,11.1,WEEK 22 (T),154.0,2014-02-21,2014-02-21
CDISCPILOT01,SV,01-713-1043,12.0,WEEK 24,168.0,2014-02-28,2014-02-28
CDISCPILOT01,SV,01-713-1043,13.0,WEEK 26,182.0,2014-03-24,2014-03-24
CDISCPILOT01,SV,01-713-1073,1.0,SCREENING 1,-7.0,2014-03-15,2014-03-15
CDISCPILOT01,SV,01-713-1073,2.0,SCREENING 2,-1.0,2014-03-28,2014-03-28
CDISCPILOT01,SV,01-713-1073,3.0,BASELINE,1.0,2014-03-30,2014-03-30
CDISCPILOT01,SV,01-713-1073,4.0,WEEK 2,14.0,2014-04-14,2014-04-14
CDISCPILOT01,SV,01-713-1073,5.0,WEEK 4,28.0,2014-04-26,2014-04-26
CDISCPILOT01,SV,01-713-1073,6.0,AMBUL ECG REMOVAL,30.0,2014-04-28,2014-04-28
CDISCPILOT01,SV,01-713-1073,7.0,WEEK 6,42.0,2014-05-12,2014-05-12
CDISCPILOT01,SV,01-713-1073,8.0,WEEK 8,56.0,2014-05-25,2014-05-25
CDISCPILOT01,SV,01-713-1073,8.1,WEEK 10 (T),70.0,2014-06-08,2014-06-08
CDISCPILOT01,SV,01-713-1073,9.0,WEEK 12,84.0,2014-06-22,2014-06-22
CDISCPILOT01,SV,01-713-1073,9.1,WEEK 14 (T),98.0,2014-07-08,2014-07-08
CDISCPILOT01,SV,01-713-1073,10.0,WEEK 16,112.0,2014-07-21,2014-07-21
CDISCPILOT01,SV,01-713-1073,10.1,WEEK 18 (T),126.0,2014-08-05,2014-08-05
CDISCPILOT01,SV,01-713-1073,11.0,WEEK 20,140.0,2014-08-17,2014-08-17
CDISCPILOT01,SV,01-713-1073,11.1,WEEK 22 (T),154.0,2014-09-05,2014-09-05
CDISCPILOT01,SV,01-713-1073,12.0,WEEK 24,168.0,2014-09-21,2014-09-21
CDISCPILOT01,SV,01-713-1073,13.0,WEEK 26,182.0,2014-10-05,2014-10-05
CDISCPILOT01,SV,01-713-1106,1.0,SCREENING 1,-7.0,2012-10-03,2012-10-03
CDISCPILOT01,SV,01-713-1106,2.0,SCREENING 2,-1.0,2012-10-29,2012-10-29
CDISCPILOT01,SV,01-713-1106,3.0,BASELINE,1.0,2012-10-31,2012-10-31
CDISCPILOT01,SV,01-713-1106,3.5,AMBUL ECG PLACEMENT,13.0,2012-11-14,2012-11-14
CDISCPILOT01,SV,01-713-1106,4.0,WEEK 2,14.0,2012-11-15,2012-11-15
CDISCPILOT01,SV,01-713-1106,5.0,WEEK 4,28.0,2012-11-26,2012-11-26
CDISCPILOT01,SV,01-713-1106,6.0,AMBUL ECG REMOVAL,30.0,2012-11-28,2012-11-28
CDISCPILOT01,SV,01-713-1106,7.0,WEEK 6,42.0,2012-12-09,2012-12-09
CDISCPILOT01,SV,01-713-1106,8.0,WEEK 8,56.0,2012-12-27,2012-12-27
CDISCPILOT01,SV,01-713-1106,8.1,WEEK 10 (T),70.0,2013-01-14,2013-01-14
CDISCPILOT01,SV,01-713-1106,9.0,WEEK 12,84.0,2013-02-10,2013-02-10
CDISCPILOT01,SV,01-713-1106,9.1,WEEK 14 (T),98.0,2013-02-14,2013-02-14
CDISCPILOT01,SV,01-713-1106,10.0,WEEK 16,112.0,2013-02-27,2013-02-27
CDISCPILOT01,SV,01-713-1106,11.0,WEEK 20,140.0,2013-03-20,2013-03-20
CDISCPILOT01,SV,01-713-1106,11.1,WEEK 22 (T),154.0,2013-04-04,2013-04-04
CDISCPILOT01,SV,01-713-1106,12.0,WEEK 24,168.0,2013-04-22,2013-04-22
CDISCPILOT01,SV,01-713-1106,13.0,WEEK 26,182.0,2013-05-06,2013-05-06
CDISCPILOT01,SV,01-713-1141,1.0,SCREENING 1,-7.0,2013-05-23,2013-05-23
CDISCPILOT01,SV,01-713-1141,2.0,SCREENING 2,-1.0,2013-05-29,2013-05-29
CDISCPILOT01,SV,01-713-1141,3.0,BASELINE,1.0,2013-05-31,2013-05-31
CDISCPILOT01,SV,01-713-1141,3.5,AMBUL ECG PLACEMENT,13.0,2013-06-13,2013-06-13
CDISCPILOT01,SV,01-713-1141,4.0,WEEK 2,14.0,2013-06-14,2013-06-14
CDISCPILOT01,SV,01-713-1141,5.0,WEEK 4,28.0,2013-06-26,2013-06-26
CDISCPILOT01,SV,01-713-1141,6.0,AMBUL ECG REMOVAL,30.0,2013-06-28,2013-06-28
CDISCPILOT01,SV,01-713-1141,7.0,WEEK 6,42.0,2013-08-06,2013-08-06
CDISCPILOT01,SV,01-713-1179,1.0,SCREENING 1,-7.0,2013-07-11,2013-07-11
CDISCPILOT01,SV,01-713-1179,2.0,SCREENING 2,-1.0,2013-08-07,2013-08-07
CDISCPILOT01,SV,01-713-1179,3.0,BASELINE,1.0,2013-08-09,2013-08-09
CDISCPILOT01,SV,01-713-1179,3.5,AMBUL ECG PLACEMENT,13.0,2013-08-23,2013-08-23
CDISCPILOT01,SV,01-713-1179,4.0,WEEK 2,14.0,2013-08-24,2013-08-24
CDISCPILOT01,SV,01-713-1179,5.0,WEEK 4,28.0,2013-09-05,2013-09-05
CDISCPILOT01,SV,01-713-1179,6.0,AMBUL ECG REMOVAL,30.0,2013-09-07,2013-09-07
CDISCPILOT01,SV,01-713-1179,7.0,WEEK 6,42.0,2013-09-19,2013-09-19
CDISCPILOT01,SV,01-713-1179,8.0,WEEK 8,56.0,2013-10-04,2013-10-04
CDISCPILOT01,SV,01-713-1179,8.1,WEEK 10 (T),70.0,2013-10-17,2013-10-17
CDISCPILOT01,SV,01-713-1179,9.0,WEEK 12,84.0,2013-11-06,2013-11-06
CDISCPILOT01,SV,01-713-1179,10.0,WEEK 16,112.0,2013-11-26,2013-11-26
CDISCPILOT01,SV,01-713-1179,10.1,WEEK 18 (T),126.0,2013-12-13,2013-12-13
CDISCPILOT01,SV,01-713-1179,11.0,WEEK 20,140.0,2014-01-01,2014-01-01
CDISCPILOT01,SV,01-713-1179,11.1,WEEK 22 (T),154.0,2014-01-14,2014-01-14
CDISCPILOT01,SV,01-713-1179,12.0,WEEK 24,168.0,2014-01-24,2014-01-24
CDISCPILOT01,SV,01-713-1179,13.0,WEEK 26,182.0,2014-02-05,2014-02-05
CDISCPILOT01,SV,01-713-1209,1.0,SCREENING 1,-7.0,2013-05-16,2013-05-16
CDISCPILOT01,SV,01-713-1209,2.0,SCREENING 2,-1.0,2013-05-25,2013-05-25
CDISCPILOT01,SV,01-713-1209,3.0,BASELINE,1.0,2013-05-27,2013-05-27
CDISCPILOT01,SV,01-713-1209,3.5,AMBUL ECG PLACEMENT,13.0,2013-06-13,2013-06-13
CDISCPILOT01,SV,01-713-1209,4.0,WEEK 2,14.0,2013-06-14,2013-06-14
CDISCPILOT01,SV,01-713-1209,5.0,WEEK 4,28.0,2013-06-22,2013-06-22
CDISCPILOT01,SV,01-713-1209,6.0,AMBUL ECG REMOVAL,30.0,2013-06-24,2013-06-24
CDISCPILOT01,SV,01-713-1209,7.0,WEEK 6,42.0,2013-07-08,2013-07-08
CDISCPILOT01,SV,01-713-1209,8.0,WEEK 8,56.0,2013-07-22,2013-07-22
CDISCPILOT01,SV,01-713-1209,8.1,WEEK 10 (T),70.0,2013-08-04,2013-08-04
CDISCPILOT01,SV,01-713-1209,9.0,WEEK 12,84.0,2013-08-19,2013-08-19
CDISCPILOT01,SV,01-713-1209,9.1,WEEK 14 (T),98.0,2013-08-31,2013-08-31
CDISCPILOT01,SV,01-713-1209,10.0,WEEK 16,112.0,2013-09-15,2013-09-15
CDISCPILOT01,SV,01-713-1209,10.1,WEEK 18 (T),126.0,2013-09-30,2013-09-30
CDISCPILOT01,SV,01-713-1209,11.0,WEEK 20,140.0,2013-10-14,2013-10-14
CDISCPILOT01,SV,01-713-1209,11.1,WEEK 22 (T),154.0,2013-10-28,2013-10-28
CDISCPILOT01,SV,01-713-1209,12.0,WEEK 24,168.0,2013-11-14,2013-11-14
CDISCPILOT01,SV,01-713-1209,13.0,WEEK 26,182.0,2013-11-22,2013-11-22
CDISCPILOT01,SV,01-713-1256,1.0,SCREENING 1,-7.0,2012-09-10,2012-09-10
CDISCPILOT01,SV,01-713-1256,2.0,SCREENING 2,-1.0,2012-09-17,2012-09-17
CDISCPILOT01,SV,01-713-1256,3.0,BASELINE,1.0,2012-09-19,2012-09-19
CDISCPILOT01,SV,01-713-1256,3.5,AMBUL ECG PLACEMENT,13.0,2012-10-02,2012-10-02
CDISCPILOT01,SV,01-713-1256,4.0,WEEK 2,14.0,2012-10-03,2012-10-03
CDISCPILOT01,SV,01-713-1256,5.0,WEEK 4,28.0,2012-10-15,2012-10-15
CDISCPILOT01,SV,01-713-1256,6.0,AMBUL ECG REMOVAL,30.0,2012-10-17,2012-10-17
CDISCPILOT01,SV,01-713-1256,7.0,WEEK 6,42.0,2012-10-31,2012-10-31
CDISCPILOT01,SV,01-713-1256,8.0,WEEK 8,56.0,2012-11-14,2012-11-14
CDISCPILOT01,SV,01-713-1256,8.1,WEEK 10 (T),70.0,2012-12-01,2012-12-01
CDISCPILOT01,SV,01-713-1256,9.0,WEEK 12,84.0,2012-12-12,2012-12-12
CDISCPILOT01,SV,01-713-1256,9.1,WEEK 14 (T),98.0,2012-12-25,2012-12-25
CDISCPILOT01,SV,01-713-1256,10.0,WEEK 16,112.0,2013-01-08,2013-01-08
CDISCPILOT01,SV,01-713-1256,10.1,WEEK 18 (T),126.0,2013-01-22,2013-01-22
CDISCPILOT01,SV,01-713-1256,11.0,WEEK 20,140.0,2013-02-03,2013-02-03
CDISCPILOT01,SV,01-713-1256,11.1,WEEK 22 (T),154.0,2013-02-19,2013-02-19
CDISCPILOT01,SV,01-713-1256,12.0,WEEK 24,168.0,2013-03-09,2013-03-09
CDISCPILOT01,SV,01-713-1256,13.0,WEEK 26,182.0,2013-03-25,2013-03-25
CDISCPILOT01,SV,01-713-1269,1.0,SCREENING 1,-7.0,2014-01-14,2014-01-14
CDISCPILOT01,SV,01-713-1269,1.1,UNSCHEDULED 1.1,,2014-01-14,2014-01-14
CDISCPILOT01,SV,01-713-1269,2.0,SCREENING 2,-1.0,2014-01-26,2014-01-26
CDISCPILOT01,SV,01-713-1269,3.0,BASELINE,1.0,2014-01-27,2014-01-27
CDISCPILOT01,SV,01-713-1269,4.0,WEEK 2,14.0,2014-02-10,2014-02-10
CDISCPILOT01,SV,01-713-1269,5.0,WEEK 4,28.0,2014-02-23,2014-02-23
CDISCPILOT01,SV,01-713-1269,6.0,AMBUL ECG REMOVAL,30.0,2014-02-25,2014-02-25
CDISCPILOT01,SV,01-713-1269,7.0,WEEK 6,42.0,2014-03-10,2014-03-10
CDISCPILOT01,SV,01-713-1269,8.0,WEEK 8,56.0,2014-03-23,2014-03-23
CDISCPILOT01,SV,01-713-1269,8.1,WEEK 10 (T),70.0,2014-04-11,2014-04-11
CDISCPILOT01,SV,01-713-1269,9.0,WEEK 12,84.0,2014-04-20,2014-04-20
CDISCPILOT01,SV,01-713-1269,9.1,WEEK 14 (T),98.0,2014-05-03,2014-05-03
CDISCPILOT01,SV,01-713-1269,10.0,WEEK 16,112.0,2014-05-19,2014-05-19
CDISCPILOT01,SV,01-713-1269,10.1,WEEK 18 (T),126.0,2014-06-03,2014-06-03
CDISCPILOT01,SV,01-713-1269,11.0,WEEK 20,140.0,2014-06-15,2014-06-15
CDISCPILOT01,SV,01-713-1269,12.0,WEEK 24,168.0,2014-07-13,2014-07-13
CDISCPILOT01,SV,01-713-1269,13.0,WEEK 26,182.0,2014-07-28,2014-07-28
CDISCPILOT01,SV,01-713-1448,1.0,SCREENING 1,-7.0,2014-01-05,2014-01-05
CDISCPILOT01,SV,01-713-1448,1.1,UNSCHEDULED 1.1,,2013-11-02,2013-11-02
CDISCPILOT01,SV,01-713-1448,2.0,SCREENING 2,-1.0,2014-01-17,2014-01-17
CDISCPILOT01,SV,01-713-1448,3.0,BASELINE,1.0,2014-01-19,2014-01-19
CDISCPILOT01,SV,01-713-1448,3.5,AMBUL ECG PLACEMENT,13.0,2014-01-31,2014-01-31
CDISCPILOT01,SV,01-713-1448,4.0,WEEK 2,14.0,2014-02-01,2014-02-01
CDISCPILOT01,SV,01-713-1448,5.0,WEEK 4,28.0,2014-02-14,2014-02-14
CDISCPILOT01,SV,01-713-1448,6.0,AMBUL ECG REMOVAL,30.0,2014-02-16,2014-02-16
CDISCPILOT01,SV,01-713-1448,7.0,WEEK 6,42.0,2014-03-02,2014-03-02
CDISCPILOT01,SV,01-713-1448,8.0,WEEK 8,56.0,2014-03-17,2014-03-17
CDISCPILOT01,SV,01-713-1448,8.1,WEEK 10 (T),70.0,2014-03-30,2014-03-30
CDISCPILOT01,SV,01-713-1448,9.0,WEEK 12,84.0,2014-04-14,2014-04-14
CDISCPILOT01,SV,01-713-1448,9.1,WEEK 14 (T),98.0,2014-04-27,2014-04-27
CDISCPILOT01,SV,01-713-1448,10.0,WEEK 16,112.0,2014-05-17,2014-05-17
CDISCPILOT01,SV,01-713-1448,101.0,AE FOLLOW-UP,,2014-06-07,2014-06-07
CDISCPILOT01,SV,01-713-1448,201.0,RETRIEVAL,168.0,2014-07-27,2014-07-27
CDISCPILOT01,SV,01-714-1035,1.0,SCREENING 1,-7.0,2014-04-03,2014-04-03
CDISCPILOT01,SV,01-714-1035,2.0,SCREENING 2,-1.0,2014-04-15,2014-04-15
CDISCPILOT01,SV,01-714-1035,3.0,BASELINE,1.0,2014-04-17,2014-04-17
CDISCPILOT01,SV,01-714-1035,3.5,AMBUL ECG PLACEMENT,13.0,2014-04-30,2014-04-30
CDISCPILOT01,SV,01-714-1035,4.0,WEEK 2,14.0,2014-05-01,2014-05-01
CDISCPILOT01,SV,01-714-1035,5.0,WEEK 4,28.0,2014-05-26,2014-05-26
CDISCPILOT01,SV,01-714-1035,6.0,AMBUL ECG REMOVAL,30.0,2014-05-28,2014-05-28
CDISCPILOT01,SV,01-714-1035,7.0,WEEK 6,42.0,2014-06-04,2014-06-04
CDISCPILOT01,SV,01-714-1035,8.0,WEEK 8,56.0,2014-06-17,2014-06-17
CDISCPILOT01,SV,01-714-1035,8.1,WEEK 10 (T),70.0,2014-07-01,2014-07-01
CDISCPILOT01,SV,01-714-1035,9.0,WEEK 12,84.0,2014-07-10,2014-07-10
CDISCPILOT01,SV,01-714-1035,9.1,WEEK 14 (T),98.0,2014-07-24,2014-07-24
CDISCPILOT01,SV,01-714-1035,10.0,WEEK 16,112.0,2014-08-06,2014-08-06
CDISCPILOT01,SV,01-714-1035,10.1,WEEK 18 (T),126.0,2014-08-20,2014-08-20
CDISCPILOT01,SV,01-714-1035,11.0,WEEK 20,140.0,2014-09-03,2014-09-03
CDISCPILOT01,SV,01-714-1035,11.1,WEEK 22 (T),154.0,2014-09-17,2014-09-17
CDISCPILOT01,SV,01-714-1035,12.0,WEEK 24,168.0,2014-10-02,2014-10-02
CDISCPILOT01,SV,01-714-1035,13.0,WEEK 26,182.0,2014-10-16,2014-10-16
CDISCPILOT01,SV,01-714-1068,1.0,SCREENING 1,-7.0,2013-07-31,2013-07-31
CDISCPILOT01,SV,01-714-1068,2.0,SCREENING 2,-1.0,2013-08-06,2013-08-06
CDISCPILOT01,SV,01-714-1068,3.0,BASELINE,1.0,2013-08-08,2013-08-08
CDISCPILOT01,SV,01-714-1068,3.5,AMBUL ECG PLACEMENT,13.0,2013-08-21,2013-08-21
CDISCPILOT01,SV,01-714-1068,4.0,WEEK 2,14.0,2013-08-22,2013-08-22
CDISCPILOT01,SV,01-714-1068,5.0,WEEK 4,28.0,2013-09-05,2013-09-05
CDISCPILOT01,SV,01-714-1068,6.0,AMBUL ECG REMOVAL,30.0,2013-09-07,2013-09-07
CDISCPILOT01,SV,01-714-1068,7.0,WEEK 6,42.0,2013-09-19,2013-09-19
CDISCPILOT01,SV,01-714-1068,8.0,WEEK 8,56.0,2013-10-03,2013-10-03
CDISCPILOT01,SV,01-714-1068,9.0,WEEK 12,84.0,2013-10-16,2013-10-16
CDISCPILOT01,SV,01-714-1068,101.0,AE FOLLOW-UP,,2013-10-23,2013-10-23
CDISCPILOT01,SV,01-714-1195,1.0,SCREENING 1,-7.0,2013-04-16,2013-04-16
CDISCPILOT01,SV,01-714-1195,2.0,SCREENING 2,-1.0,2013-04-24,2013-04-24
CDISCPILOT01,SV,01-714-1195,3.0,BASELINE,1.0,2013-04-26,2013-04-26
CDISCPILOT01,SV,01-714-1195,4.0,WEEK 2,14.0,2013-05-09,2013-05-09
CDISCPILOT01,SV,01-714-1195,5.0,WEEK 4,28.0,2013-05-23,2013-05-23
CDISCPILOT01,SV,01-714-1195,7.0,WEEK 6,42.0,2013-06-05,2013-06-05
CDISCPILOT01,SV,01-714-1195,8.0,WEEK 8,56.0,2013-06-20,2013-06-20
CDISCPILOT01,SV,01-714-1195,8.1,WEEK 10 (T),70.0,2013-07-04,2013-07-04
CDISCPILOT01,SV,01-714-1195,9.0,WEEK 12,84.0,2013-07-17,2013-07-17
CDISCPILOT01,SV,01-714-1195,9.1,WEEK 14 (T),98.0,2013-07-31,2013-07-31
CDISCPILOT01,SV,01-714-1195,10.0,WEEK 16,112.0,2013-08-09,2013-08-09
CDISCPILOT01,SV,01-714-1195,10.1,WEEK 18 (T),126.0,2013-08-23,2013-08-23
CDISCPILOT01,SV,01-714-1195,11.0,WEEK 20,140.0,2013-09-12,2013-09-12
CDISCPILOT01,SV,01-714-1195,11.1,WEEK 22 (T),154.0,2013-09-26,2013-09-26
CDISCPILOT01,SV,01-714-1195,12.0,WEEK 24,168.0,2013-10-10,2013-10-10
CDISCPILOT01,SV,01-714-1195,13.0,WEEK 26,182.0,2013-10-23,2013-10-23
CDISCPILOT01,SV,01-714-1288,1.0,SCREENING 1,-7.0,2013-11-24,2013-11-24
CDISCPILOT01,SV,01-714-1288,1.1,UNSCHEDULED 1.1,,2013-11-24,2013-11-24
CDISCPILOT01,SV,01-714-1288,2.0,SCREENING 2,-1.0,2013-12-02,2013-12-02
CDISCPILOT01,SV,01-714-1288,3.0,BASELINE,1.0,2013-12-04,2013-12-04
CDISCPILOT01,SV,01-714-1288,4.0,WEEK 2,14.0,2013-12-17,2013-12-17
CDISCPILOT01,SV,01-714-1288,5.0,WEEK 4,28.0,2014-01-01,2014-01-01
CDISCPILOT01,SV,01-714-1288,6.0,AMBUL ECG REMOVAL,30.0,2014-01-03,2014-01-03
CDISCPILOT01,SV,01-714-1288,7.0,WEEK 6,42.0,2014-01-19,2014-01-19
CDISCPILOT01,SV,01-714-1288,8.0,WEEK 8,56.0,2014-02-02,2014-02-02
CDISCPILOT01,SV,01-714-1288,8.1,WEEK 10 (T),70.0,2014-02-16,2014-02-16
CDISCPILOT01,SV,01-714-1288,9.0,WEEK 12,84.0,2014-03-02,2014-03-02
CDISCPILOT01,SV,01-714-1288,9.1,WEEK 14 (T),98.0,2014-03-16,2014-03-16
CDISCPILOT01,SV,01-714-1288,10.0,WEEK 16,112.0,2014-04-01,2014-04-01
CDISCPILOT01,SV,01-714-1288,10.1,WEEK 18 (T),126.0,2014-04-15,2014-04-15
CDISCPILOT01,SV,01-714-1288,11.0,WEEK 20,140.0,2014-04-29,2014-04-29
CDISCPILOT01,SV,01-714-1288,11.1,WEEK 22 (T),154.0,2014-05-13,2014-05-13
CDISCPILOT01,SV,01-714-1288,12.0,WEEK 24,168.0,2014-05-27,2014-05-27
CDISCPILOT01,SV,01-714-1288,12.1,UNSCHEDULED 12.1,,2014-06-06,2014-06-06
CDISCPILOT01,SV,01-714-1288,13.0,WEEK 26,182.0,2014-06-17,2014-06-17
CDISCPILOT01,SV,01-714-1375,1.0,SCREENING 1,-7.0,2013-02-23,2013-02-23
CDISCPILOT01,SV,01-714-1375,2.0,SCREENING 2,-1.0,2013-02-24,2013-02-24
CDISCPILOT01,SV,01-714-1375,3.0,BASELINE,1.0,2013-02-26,2013-02-26
CDISCPILOT01,SV,01-714-1375,3.5,AMBUL ECG PLACEMENT,13.0,2013-03-18,2013-03-18
CDISCPILOT01,SV,01-714-1375,4.0,WEEK 2,14.0,2013-03-19,2013-03-19
CDISCPILOT01,SV,01-714-1375,5.0,WEEK 4,28.0,2013-04-06,2013-04-06
CDISCPILOT01,SV,01-714-1375,6.0,AMBUL ECG REMOVAL,30.0,2013-04-08,2013-04-08
CDISCPILOT01,SV,01-714-1375,7.0,WEEK 6,42.0,2013-04-15,2013-04-15
CDISCPILOT01,SV,01-714-1375,8.0,WEEK 8,56.0,2013-04-26,2013-04-26
CDISCPILOT01,SV,01-714-1375,8.1,WEEK 10 (T),70.0,2013-05-10,2013-05-10
CDISCPILOT01,SV,01-714-1375,9.0,WEEK 12,84.0,2013-05-25,2013-05-25
CDISCPILOT01,SV,01-714-1375,9.1,WEEK 14 (T),98.0,2013-06-08,2013-06-08
CDISCPILOT01,SV,01-714-1375,10.0,WEEK 16,112.0,2013-06-22,2013-06-22
CDISCPILOT01,SV,01-714-1375,10.1,WEEK 18 (T),126.0,2013-07-06,2013-07-06
CDISCPILOT01,SV,01-714-1375,11.0,WEEK 20,140.0,2013-07-20,2013-07-20
CDISCPILOT01,SV,01-714-1375,11.1,WEEK 22 (T),154.0,2013-08-03,2013-08-03
CDISCPILOT01,SV,01-714-1375,12.0,WEEK 24,168.0,2013-08-23,2013-08-23
CDISCPILOT01,SV,01-714-1375,13.0,WEEK 26,182.0,2013-09-07,2013-09-07
CDISCPILOT01,SV,01-714-1425,1.0,SCREENING 1,-7.0,2013-08-11,2013-08-11
CDISCPILOT01,SV,01-714-1425,2.0,SCREENING 2,-1.0,2013-08-13,2013-08-13
CDISCPILOT01,SV,01-714-1425,3.0,BASELINE,1.0,2013-08-15,2013-08-15
CDISCPILOT01,SV,01-714-1425,4.0,WEEK 2,14.0,2013-08-22,2013-08-22
CDISCPILOT01,SV,01-715-1085,1.0,SCREENING 1,-7.0,2013-02-03,2013-02-03
CDISCPILOT01,SV,01-715-1085,2.0,SCREENING 2,-1.0,2013-02-14,2013-02-14
CDISCPILOT01,SV,01-715-1085,3.0,BASELINE,1.0,2013-02-16,2013-02-16
CDISCPILOT01,SV,01-715-1085,3.5,AMBUL ECG PLACEMENT,13.0,2013-03-03,2013-03-03
CDISCPILOT01,SV,01-715-1085,4.0,WEEK 2,14.0,2013-03-04,2013-03-04
CDISCPILOT01,SV,01-715-1085,5.0,WEEK 4,28.0,2013-03-17,2013-03-17
CDISCPILOT01,SV,01-715-1085,6.0,AMBUL ECG REMOVAL,30.0,2013-03-19,2013-03-19
CDISCPILOT01,SV,01-715-1085,7.0,WEEK 6,42.0,2013-03-31,2013-03-31
CDISCPILOT01,SV,01-715-1085,8.0,WEEK 8,56.0,2013-04-14,2013-04-14
CDISCPILOT01,SV,01-715-1085,8.1,WEEK 10 (T),70.0,2013-04-28,2013-04-28
CDISCPILOT01,SV,01-715-1085,9.0,WEEK 12,84.0,2013-05-12,2013-05-12
CDISCPILOT01,SV,01-715-1085,9.1,WEEK 14 (T),98.0,2013-05-26,2013-05-26
CDISCPILOT01,SV,01-715-1085,10.0,WEEK 16,112.0,2013-06-09,2013-06-09
CDISCPILOT01,SV,01-715-1085,10.1,WEEK 18 (T),126.0,2013-06-23,2013-06-23
CDISCPILOT01,SV,01-715-1085,11.0,WEEK 20,140.0,2013-07-07,2013-07-07
CDISCPILOT01,SV,01-715-1085,11.1,WEEK 22 (T),154.0,2013-07-21,2013-07-21
CDISCPILOT01,SV,01-715-1085,12.0,WEEK 24,168.0,2013-08-04,2013-08-04
CDISCPILOT01,SV,01-715-1085,13.0,WEEK 26,182.0,2013-08-18,2013-08-18
CDISCPILOT01,SV,01-715-1107,1.0,SCREENING 1,-7.0,2013-02-12,2013-02-12
CDISCPILOT01,SV,01-715-1107,2.0,SCREENING 2,-1.0,2013-02-24,2013-02-24
CDISCPILOT01,SV,01-715-1107,3.0,BASELINE,1.0,2013-02-26,2013-02-26
CDISCPILOT01,SV,01-715-1107,3.5,AMBUL ECG PLACEMENT,13.0,2013-03-11,2013-03-11
CDISCPILOT01,SV,01-715-1107,4.0,WEEK 2,14.0,2013-03-12,2013-03-12
CDISCPILOT01,SV,01-715-1107,5.0,WEEK 4,28.0,2013-03-26,2013-03-26
CDISCPILOT01,SV,01-715-1107,6.0,AMBUL ECG REMOVAL,30.0,2013-03-28,2013-03-28
CDISCPILOT01,SV,01-715-1107,7.0,WEEK 6,42.0,2013-04-08,2013-04-08
CDISCPILOT01,SV,01-715-1107,8.0,WEEK 8,56.0,2013-04-23,2013-04-23
CDISCPILOT01,SV,01-715-1107,8.1,WEEK 10 (T),70.0,2013-05-07,2013-05-07
CDISCPILOT01,SV,01-715-1107,9.0,WEEK 12,84.0,2013-05-13,2013-05-13
CDISCPILOT01,SV,01-715-1107,101.0,AE FOLLOW-UP,,2013-05-21,2013-05-21
CDISCPILOT01,SV,01-715-1107,201.0,RETRIEVAL,168.0,2013-08-14,2013-08-14
CDISCPILOT01,SV,01-715-1134,1.0,SCREENING 1,-7.0,2014-04-17,2014-04-17
CDISCPILOT01,SV,01-715-1155,1.0,SCREENING 1,-7.0,2013-11-29,2013-11-29
CDISCPILOT01,SV,01-715-1155,2.0,SCREENING 2,-1.0,2013-12-11,2013-12-11
CDISCPILOT01,SV,01-715-1155,3.0,BASELINE,1.0,2013-12-13,2013-12-13
CDISCPILOT01,SV,01-715-1155,3.5,AMBUL ECG PLACEMENT,13.0,2013-12-26,2013-12-26
CDISCPILOT01,SV,01-715-1155,4.0,WEEK 2,14.0,2013-12-27,2013-12-27
CDISCPILOT01,SV,01-715-1155,5.0,WEEK 4,28.0,2014-01-10,2014-01-10
CDISCPILOT01,SV,01-715-1155,6.0,AMBUL ECG REMOVAL,30.0,2014-01-12,2014-01-12
CDISCPILOT01,SV,01-715-1155,7.0,WEEK 6,42.0,2014-04-26,2014-04-26
CDISCPILOT01,SV,01-715-1155,201.0,RETRIEVAL,168.0,2014-04-26,2014-04-26
CDISCPILOT01,SV,01-715-1207,1.0,SCREENING 1,-7.0,2012-11-12,2012-11-12
CDISCPILOT01,SV,01-715-1207,2.0,SCREENING 2,-1.0,2012-11-16,2012-11-16
CDISCPILOT01,SV,01-715-1207,3.0,BASELINE,1.0,2012-11-18,2012-11-18
CDISCPILOT01,SV,01-715-1207,3.5,AMBUL ECG PLACEMENT,13.0,2012-12-01,2012-12-01
CDISCPILOT01,SV,01-715-1207,4.0,WEEK 2,14.0,2012-12-02,2012-12-02
CDISCPILOT01,SV,01-715-1207,5.0,WEEK 4,28.0,2012-12-17,2012-12-17
CDISCPILOT01,SV,01-715-1207,6.0,AMBUL ECG REMOVAL,30.0,2012-12-19,2012-12-19
CDISCPILOT01,SV,01-715-1207,7.0,WEEK 6,42.0,2012-12-31,2012-12-31
CDISCPILOT01,SV,01-715-1207,8.0,WEEK 8,56.0,2013-01-13,2013-01-13
CDISCPILOT01,SV,01-715-1207,8.1,WEEK 10 (T),70.0,2013-01-27,2013-01-27
CDISCPILOT01,SV,01-715-1207,9.0,WEEK 12,84.0,2013-02-10,2013-02-10
CDISCPILOT01,SV,01-715-1207,9.1,WEEK 14 (T),98.0,2013-02-24,2013-02-24
CDISCPILOT01,SV,01-715-1207,10.0,WEEK 16,112.0,2013-03-10,2013-03-10
CDISCPILOT01,SV,01-715-1207,10.1,WEEK 18 (T),126.0,2013-03-24,2013-03-24
CDISCPILOT01,SV,01-715-1207,11.0,WEEK 20,140.0,2013-04-07,2013-04-07
